time,seconds_elapsed,z,y,x
1789039501425244700,0.05824462890625,0.1324362935900688,0.15051146398484705,0.16103073910735546
1789039501435189500,0.068189453125,0.1316051034629345,0.17674597543776036,0.12840177737697958
1789039501445133600,0.078133544921875,0.12787176215350626,0.18638035748451948,0.12506978341005742
1789039501455077600,0.08807763671875,0.15105506934225557,0.15493132625371217,0.1125076042830944
1789039501465021700,0.098021728515625,0.2071504660516977,0.15849164908379315,0.14085333573631942
1789039501474965500,0.107965576171875,0.23562778799533843,0.16352847420722244,0.14424736208878455
1789039501484909600,0.11790966796875,0.19702362431287765,0.1361389475002885,0.06446216997317969
1789039501494854400,0.1278544921875,0.13053425936102867,0.1452042974874377,-0.0203451611533761
1789039501504798700,0.137798828125,0.10480594386458396,0.17442162414342163,-0.03658354457505047
1789039501514742500,0.147742431640625,0.174124394762516,0.1536591143608093,-0.019341464003548026
1789039501524686600,0.1576865234375,0.2838870842516422,0.10388853675872087,-0.060296282465383405
1789039501534630700,0.167630615234375,0.3373135540127754,0.05178893168717622,-0.08765205303318797
1789039501544574500,0.177574462890625,0.14410218146443365,0.0668392013028264,-0.027763912977278232
1789039501554519600,0.18751953125,0.03064356006681919,0.07829787616729736,-0.02902794156372547
1789039501564463600,0.197463623046875,0.08470774320960045,0.052063364714384074,-0.056311085286736486
1789039501574407700,0.20740771484375,0.15980419298708437,0.0775312757089734,0.011580182352289557
1789039501584351500,0.2173515625,0.1458306126922369,0.0911424524322152,0.07921608699075877
1789039501594295600,0.227295654296875,0.10301496879458427,0.04768500349968671,0.020854937306419012
1789039501604239600,0.237239501953125,0.09255787218809128,0.010128010782599449,-0.07405943487994372
1789039501614184700,0.247184814453125,0.06642214493453502,0.031232465870678423,-0.11042444133348762
1789039501624128500,0.25712841796875,0.08225684292614459,0.04459785113930702,-0.044976767454296344
1789039501634072800,0.26707275390625,0.14026947143375873,0.004918459440767764,0.0004212210867553949
1789039501644016600,0.2770166015625,0.18243220438063143,-0.016967793674767015,-0.00023636603914201258
1789039501653960700,0.286960693359375,0.15896598859727382,0.005063128608465194,-0.001787102612480521
1789039501663904800,0.29690478515625,0.15863748729526997,-0.00288958396166563,0.01999795515090227
1789039501673849600,0.306849609375,0.1358311967253685,-0.029423662883043288,0.042953956389799715
1789039501683793700,0.316793701171875,0.09616086511611938,-0.04064326829463243,0.09018493251167237
1789039501693737700,0.32673779296875,0.07033376542031765,-0.02593435946255922,0.12519377511590718
1789039501703681800,0.336681884765625,0.040859249132871624,-0.03253068898767233,0.11658303702846169
1789039501713625600,0.34662548828125,0.03849953426420689,-0.031599253356456754,0.04619556865952909
1789039501723569700,0.356569580078125,0.008417699733376503,-0.005004968680441379,0.017036182735860345
1789039501733514800,0.3665146484375,-0.04064472959935665,-0.01908697778582573,-0.017880086214095352
1789039501743458800,0.376458740234375,-0.10206512072384356,-0.003005611556768417,-0.0066049512229859825
1789039501753402600,0.386402587890625,-0.09466624264419078,-0.039975744296610355,0.05870061077177524
1789039501763346700,0.3963466796875,-0.04090717992782592,-0.10610971993952989,0.058595250701159236
1789039501773290800,0.406290771484375,0.03706336398124695,-0.07884732674360274,0.05164674673750996
1789039501783234600,0.416234619140625,0.10728723928630352,-0.026537586052715778,0.11876381513364612
1789039501793179600,0.4261796875,0.13555997856855392,-0.009732873985171317,0.1355782448776066
1789039501803123700,0.436123779296875,0.09379588955044746,-0.012147533911466597,0.08451024787612259
1789039501813067800,0.44606787109375,0.046451954573392865,-0.00613864888548851,0.07020933532305061
1789039501823011600,0.456011474609375,0.09787760590612887,0.06080313600897789,0.08420644262395799
1789039501832955600,0.46595556640625,0.195831199657917,0.1133481467604637,0.09134462394081055
1789039501842899500,0.4758994140625,0.26867490207254885,0.11626432646811008,0.09519318912774324
1789039501852844800,0.4858447265625,0.2709025149941444,0.11398498335927724,0.09216938432715832
1789039501862788600,0.49578857421875,0.210327927044034,0.12956395302414894,0.05375307136699557
1789039501872732700,0.505732666015625,0.1453203250825405,0.16044190636873246,0.06597805442884563
1789039501882676500,0.515676513671875,0.14803250665068626,0.15763181738406418,0.11078421455658971
1789039501892620500,0.52562060546875,0.1398088681846857,0.12942045290023088,0.11725677157156168
1789039501902564900,0.53556494140625,0.10314648621976374,0.11429741030931471,0.12391644865646957
1789039501912509700,0.545509765625,0.1026432128727436,0.11130319692939519,0.14508439743481574
1789039501922453800,0.555453857421875,0.1444236685037613,0.10952741942852735,0.07385748256705701
1789039501932397600,0.5653974609375,0.21323066274821756,0.11421294689625501,0.03527034308463335
1789039501942341600,0.575341552734375,0.24595395169854162,0.11201572911292314,0.05532258570604026
1789039501952285700,0.58528564453125,0.2516220604628324,0.08191226727217435,0.05306888849511742
1789039501962229800,0.595229736328125,0.22312954095005988,0.08807575833797454,0.020007453631609676
1789039501972174600,0.605174560546875,0.1749129147917032,0.11533844379484653,0.028772067106515167
1789039501982118700,0.61511865234375,0.10355740510821342,0.11785802540034054,0.04413739402070641
1789039501992062500,0.6250625,0.030181203252077102,0.11879296816289424,0.07451572728008031
1789039502002006800,0.6350068359375,0.02594458859562874,0.10250585022866725,0.12263437295667827
1789039502011950800,0.644950927734375,0.07898761199712753,0.06188157889544964,0.1966846016168594
1789039502021894700,0.654894775390625,0.14449848730564116,0.00909837547391653,0.1886812548380345
1789039502031839500,0.664839599609375,0.11399988866746424,0.03648673313707113,0.17135149598307906
1789039502041783600,0.674783447265625,0.03324818960726261,0.03316080358475446,0.10697422781437635
1789039502051728000,0.684727783203125,-0.06611176381111145,0.020285832181572913,0.09272131912149488
1789039502061671700,0.694671630859375,-0.1364274090528488,0.01989595608115196,0.09683569563776254
1789039502071615700,0.70461572265625,-0.18650456838607787,0.0552276739642024,0.08792794736512005
1789039502081559600,0.7145595703125,-0.17596154706180095,0.06539806258380412,0.07340235921069979
1789039502091504600,0.724504638671875,-0.073699442461133,0.03904956936240196,0.0690393416956067
1789039502101448700,0.73444873046875,0.027067455145716665,0.05878244383633136,0.04513254253789782
1789039502111392800,0.744392822265625,0.044851533639431,0.09711246675252914,0.02463642860651016
1789039502121336600,0.754336669921875,0.09486264199912547,0.09176292241811752,-0.017010463772714136
1789039502131280600,0.76428076171875,0.12507891656458378,0.10907499948590993,-0.050190994971245524
1789039502141225500,0.7742255859375,0.08377017009854316,0.16639467729330062,-0.029809922254271804
1789039502151169800,0.784169677734375,0.1386889242440462,0.21940701329559087,-0.1096904645031318
1789039502161113900,0.79411376953125,0.1384405024409294,0.32518180219233034,-0.25241145727485415
1789039502171057700,0.8040576171875,0.18690145874917505,0.4777645194932818,-0.30640286744236944
1789039502181001700,0.814001708984375,0.4234352556735277,0.49422027199268337,-0.47586898807026445
1789039502190945500,0.823945556640625,0.4679109417378902,0.509752772167325,-0.4676238684248179
1789039502200891000,0.833890869140625,0.25006723223626615,0.491416028226912,-0.3673820541379973
1789039502210834700,0.843834716796875,0.08788228159248829,0.3613695523828268,-0.297382160314545
1789039502220778800,0.85377880859375,0.0896335091739893,0.24984277583062647,-0.21672738229017705
1789039502230722600,0.86372265625,0.19390695359706878,0.1490980900555849,-0.05771225732155144
1789039502240666600,0.87366650390625,0.17369301760792732,0.02984744125306606,0.10989380505550653
1789039502250610700,0.883610595703125,0.12724866181910038,-0.13782529315203426,0.1740952417332679
1789039502260555800,0.8935556640625,0.10968962425291538,-0.17224428010433912,0.2610023033517413
1789039502270499600,0.90349951171875,0.005419686961174011,-0.14064035057276486,0.3348554933361709
1789039502280443600,0.913443603515625,-0.07428571791648865,-0.12330927654355764,0.3185882126135751
1789039502290387700,0.9233876953125,-0.007122399225831032,-0.0906745426595211,0.30480509512322024
1789039502300331500,0.93333154296875,0.10815350072681904,-0.08887187715172767,0.23808309045927598
1789039502310275800,0.94327587890625,0.11428571987152099,-0.06880670198351145,0.20553267385782673
1789039502320220700,0.953220703125,0.09665770872235298,-0.013855506873130797,0.19892759477067737
1789039502330164700,0.963164794921875,0.21189093857705593,0.0606938304156065,0.13757707227831706
1789039502340108500,0.973108642578125,0.35807343344688414,0.12082125912010669,0.0868079851581715
1789039502350052600,0.983052490234375,0.4961988785892725,0.13039455862939356,-0.012994414798077196
1789039502359996700,0.99299658203125,0.537416439640522,0.1266965808942914,-0.03655345083088614
1789039502369940700,1.002940673828125,0.4588409155756235,0.10468903948664665,0.08025338501608931
1789039502379885600,1.012885498046875,0.24890637176334857,0.011438801120221614,0.22457895430708302
1789039502389829600,1.02282958984375,0.049154783791303634,-0.04288169487118721,0.2715573256410658
1789039502399773700,1.032773681640625,-0.06344751303792,-0.03771832075864076,0.2656734369679354
1789039502409717800,1.0427177734375,-0.016499883902072906,-0.009374854327738285,0.22097784280888735
1789039502419661800,1.052661865234375,0.03223638221621513,0.034017712675035,0.17252240292597562
1789039502429605600,1.062605712890625,0.004556932651996613,0.06889701061546802,0.09636837038695811
1789039502439550700,1.07255078125,-0.10950842246711254,0.04849427405595779,0.020841326622886118
1789039502449494500,1.08249462890625,-0.13467910408079622,0.05666939720511436,0.026540568027668632
1789039502459438600,1.0924384765625,-0.08814882357418537,0.11330226179212331,0.004387154159217607
1789039502469382700,1.102382568359375,-0.03032031946182251,0.10814531742036342,-0.03218346243560081
1789039502479326700,1.11232666015625,0.08168634956181049,0.08531155432164668,-0.043864358366141096
1789039502489271600,1.122271484375,0.2346796934902668,0.055609951280057426,-0.025956183135299942
1789039502499215600,1.132215576171875,0.3072013243436813,-0.025664018088579175,0.04438490250837058
1789039502509159700,1.14215966796875,0.31147827101051806,-0.10276040951162577,0.15296414523343554
1789039502519103700,1.152103759765625,0.2778314374744892,-0.14924071339666842,0.21722731290264055
1789039502529047800,1.1620478515625,0.24509002834558485,-0.12557546790987253,0.10660218876474536
1789039502538991600,1.17199169921875,0.43965982976555823,0.0015445990934967993,-0.06755947840139269
1789039502548936700,1.181936767578125,0.6032815352141857,0.08041969062685966,-0.09587444939017295
1789039502558880500,1.191880615234375,0.31522447180151936,-0.00969838719367981,0.11395383930234237
1789039502568824800,1.201824951171875,0.1279974343597889,-0.13214958560317755,0.2929312635865994
1789039502578768600,1.2117685546875,0.05931552779972553,-0.10114303744286299,0.3843498843453824
1789039502588712700,1.221712646484375,-0.0617132365912199,-0.06802519621700048,0.2803962099285796
1789039502598656800,1.23165673828125,-0.19240473234057426,0.004806815759837627,0.08672857237956486
1789039502608601900,1.241601806640625,-0.24930852282345292,0.12794862678200006,-0.11137116586538032
1789039502618545700,1.251545654296875,-0.19224515786468982,0.1067646767169237,-0.23454777420628814
1789039502628490000,1.261489990234375,-0.06991992392241954,0.013349310916662216,-0.17297219252008944
1789039502638434000,1.27143408203125,-0.00006955810487270355,-0.02221884607076645,0.05616952139157801
1789039502648377900,1.2813779296875,0.08666296893060207,-0.0720069593295455,0.18693068484365938
1789039502658322000,1.291322021484375,0.10649112047255038,-0.12566402297616006,0.135321219642926
1789039502668266800,1.301266845703125,0.049552843198180194,-0.0873565041527152,0.05440324237141758
1789039502678211000,1.311211181640625,-0.011670564049482345,-0.052017187485098836,0.01118278053253889
1789039502688155000,1.32115478515625,-0.027922610670328137,-0.007884323509037495,-0.006829188432916998
1789039502698099000,1.331098876953125,-0.05207680871784687,0.013280045072734356,-0.03189825456934049
1789039502708042800,1.341042724609375,-0.01530804376900196,0.0440630136102438,-0.04407928889160975
1789039502717987800,1.35098779296875,0.03568330779969692,0.07106091065108776,-0.02720467165932059
1789039502727932000,1.360931884765625,0.1275964523434639,0.08053688726574182,0.003876914498582482
1789039502737876000,1.3708759765625,0.21436872686743735,0.061467152875661846,0.07446744942525402
1789039502747819800,1.38081982421875,0.25136077917814253,0.018076631699502466,0.08516907711103558
1789039502757763800,1.390763916015625,0.18021745094060898,0.09013707478195428,0.06735405548978597
1789039502767708000,1.4007080078125,0.03623275837600231,0.1916550830170512,0.09706073656529188
1789039502777653000,1.410653076171875,-0.03386018402576446,0.18708090696930885,0.12057765962257981
1789039502787597000,1.42059716796875,-0.042536826956272124,0.17889146303385495,0.11598638630956411
1789039502797540900,1.430540771484375,0.05097498495578766,0.21714900523573158,0.1205924188002944
1789039502807485000,1.44048486328125,0.17983575814664363,0.19703589927256107,0.0947689723663032
1789039502817428700,1.4504287109375,0.2992418897718191,0.15203180541992187,0.06291435600928962
1789039502827374000,1.4603740234375,0.3689689214706421,0.13861819709539414,0.060401131079345936
1789039502837318000,1.47031787109375,0.32966391604244705,0.12481003649532794,0.09430296228975057
1789039502847262000,1.480261962890625,0.2683364638984203,0.04254764061123133,0.1254003670712933
1789039502857205800,1.490205810546875,0.08564999249577522,-0.05737637643069028,0.1468398993326351
1789039502867149800,1.50014990234375,0.005216857865452766,-0.09360270506590604,0.2404761413419619
1789039502877094000,1.510093994140625,0.12845628404319284,0.020422025781869888,0.17280531152058393
1789039502887039000,1.5200390625,0.20211130284070966,0.15588964989185333,-0.012123166655190289
1789039502896982800,1.529982666015625,0.18827976136505603,0.18348025212883948,-0.06800802588649094
1789039502906926800,1.5399267578125,0.06015840836465358,0.20174685344249008,-0.05993289251308888
1789039502916871000,1.549870849609375,-0.10969897660315037,0.11529898856729269,-0.021421119821816683
1789039502926814700,1.559814697265625,-0.26690906144380566,0.01587181513160467,0.08124832347072661
1789039502936759000,1.569759033203125,-0.32347792088389393,-0.011501929484307765,0.20757687477022407
1789039502946704000,1.579703857421875,-0.2721843714982271,-0.050718672107160086,0.22362411953397093
1789039502956648000,1.58964794921875,-0.11092296544015406,-0.08325754440128803,0.16386749690324068
1789039502966591700,1.599591796875,0.06121230133175849,-0.028192952044308182,0.14345913432054222
1789039502976535800,1.609535888671875,0.18453999031484125,-0.003351648515462875,0.1625634285673499
1789039502986479900,1.61947998046875,0.29597558145225045,0.0034428339302539825,0.15181852799542248
1789039502996425000,1.629425048828125,0.3563146070808172,0.008605038999021052,0.09951945482902229
1789039503006368800,1.63936865234375,0.31841070062220095,0.007073299387097358,0.04737447624579072
1789039503016312800,1.649312744140625,0.2825876920908689,0.042618075498938555,0.01543057417012751
1789039503026257000,1.6592568359375,0.27763737620711326,0.06055646777153015,-0.013198723464831709
1789039503036201000,1.669200927734375,0.22038696424365042,0.04799713818877935,0.018582097003608942
1789039503046145000,1.67914501953125,0.11740823580622672,0.035683600060641765,0.05685016059949994
1789039503056089900,1.68908984375,0.04748831188380718,0.013391688753664492,0.07185315700732171
1789039503066034000,1.699033935546875,0.03812485573291778,-0.0027025369569659233,0.07902845546416938
1789039503075977700,1.708977783203125,0.13911737878918648,0.007720657379925251,0.046146761081740255
1789039503085922000,1.718922119140625,0.24482933158278464,0.0309197466596961,0.026949527854472397
1789039503095865900,1.728865966796875,0.30973055056035514,0.024657471394538878,0.06449629143849014
1789039503105810000,1.738809814453125,0.2659446003258228,0.024631167909502982,0.09631773617826402
1789039503115754800,1.748754638671875,0.15741466750204564,0.022990122704207895,0.08017309545464814
1789039503125698800,1.75869873046875,0.03831657891273498,0.04018032695800066,0.13482786490172147
1789039503135643000,1.768642822265625,-0.04887655137181282,0.047393911598622794,0.12140614633597432
1789039503145587000,1.7785869140625,-0.06410568468570708,0.07233838324099778,0.07332695588693022
1789039503155531000,1.788531005859375,-0.020126842227578164,0.08428104223012924,0.045321196977794166
1789039503165475800,1.798475830078125,0.008124269744753837,0.08343786940425633,0.07996741681471467
1789039503175420000,1.808419921875,0.08471183486282825,0.07381547005623579,0.060435690936073656
1789039503185363700,1.81836376953125,0.16083353603482245,0.11551993784159421,0.07413425368182361
1789039503195308000,1.82830810546875,0.19839491266608236,0.13151099543869493,0.11254355237931013
1789039503205251800,1.838251953125,0.19604396562576293,0.08944061695039272,0.1502693988572806
1789039503215196000,1.84819580078125,0.17348785042464732,0.0411108858063817,0.10142930703833698
1789039503225140700,1.858140625,0.3017646862477064,0.1262038289412856,0.03704319797605276
1789039503235084800,1.868084716796875,0.5437608402311802,0.31393940042704344,-0.0002006371386349201
1789039503245028900,1.87802880859375,0.29433833563923834,0.25860855834931135,0.04238770080916583
1789039503254973000,1.887972900390625,0.1802431699037552,0.18733809660077094,-0.038271862988173956
1789039503264917000,1.8979169921875,0.14574059632122516,0.16361732153445482,0.09932477250713855
1789039503274861800,1.90786181640625,0.10739771392345428,0.061062371467053886,0.1984464967228472
1789039503284806000,1.917805908203125,0.14570260239839553,0.05332680877894163,0.218062357220985
1789039503294750000,1.92775,0.1914525461822748,0.13008710011541844,0.14789002944007515
1789039503304694000,1.937694091796875,0.20148820250630378,0.11090309169590473,0.02775364731159061
1789039503314637800,1.947637939453125,0.23030746975541114,0.040000294215977186,-0.01882639062087983
1789039503324582000,1.957581787109375,0.24316110610961914,0.029635844328999517,-0.008368819090351462
1789039503334526700,1.967526611328125,0.17391630496978758,-0.010921499247848987,0.014881781180948019
1789039503344471000,1.977470947265625,0.006458382359147072,-0.025908055977523325,0.05532379128243774
1789039503354414800,1.987414794921875,-0.06315583661496639,-0.04241846127361059,0.022773192017897962
1789039503364359000,1.99735888671875,-0.06599895108640194,-0.1546378962650895,0.04039046257734299
1789039503374303000,2.007302978515625,0.007147533667087555,-0.10325842216163873,0.10942308227121829
1789039503384247800,2.017247802734375,0.07622808415591717,0.11142916139662265,-0.08334566107615828
1789039503394192000,2.02719189453125,0.156692198446393,0.1420697988539934,-0.23869886600375173
1789039503404136000,2.037135986328125,0.19186989481151104,0.10418810422718525,-0.20967413931041956
1789039503414080000,2.047080078125,0.05178220968544483,0.0010246668726205826,-0.004712926931306719
1789039503424023800,2.05702392578125,-0.1979319713294506,-0.10565671547502278,0.25844606126397845
1789039503433967900,2.0669677734375,-0.28037001604139805,-0.16503391033411025,0.30816352043934164
1789039503443913000,2.076912841796875,-0.14584054956436157,-0.13768763824701308,0.13919438954815266
1789039503453857000,2.08685693359375,0.06462707821130752,-0.04566664941459894,0.017002426596730947
1789039503463800800,2.09680078125,0.18746493785083293,0.04384761729389429,0.04160210338942706
1789039503473745000,2.106744873046875,0.25792145286798474,0.0427338108330965,-0.0015442337673157453
1789039503483688700,2.116688720703125,0.2650684020131826,0.022311200529336928,-0.049901437440142034
1789039503493634000,2.126634033203125,0.24927695864140986,0.028334114080667494,-0.05319799476750195
1789039503503577900,2.136577880859375,0.10672376018464565,0.009920213250815867,-0.037947453339397905
1789039503513522000,2.14652197265625,-0.09893149887323378,-0.008020809370279311,-0.008605185129493475
1789039503523466000,2.156466064453125,-0.209330148178339,-0.003778641755878925,0.006773512722924351
1789039503533409800,2.166409912109375,-0.20070435865223407,0.04928425538986921,0.01632357748709619
1789039503543355000,2.17635498046875,-0.09707388830780983,0.13780775749534369,0.05619155056029558
1789039503553299000,2.186298828125,0.05668342573046684,0.09337503378987312,0.04140380433835089
1789039503563243000,2.196242919921875,0.21770985398888587,0.02822919240146875,0.04958466310855001
1789039503573186800,2.206186767578125,0.3449947561651468,0.030957448321580885,0.07823346916157752
1789039503583131000,2.216130859375,0.4467582635939121,0.06623451340794563,0.07058240641914308
1789039503593074700,2.22607470703125,0.26703005747497083,0.09243073867708444,0.10396952957306056
1789039503603020300,2.236020263671875,0.20604279707074163,0.10091887329816818,0.034405542948842044
1789039503612964000,2.245964111328125,0.19138181903362272,0.13282529290765524,0.009900485637038946
1789039503622908200,2.255908203125,0.08965513648390769,0.18906448200196027,0.03654036302044988
1789039503632852000,2.26585205078125,0.04709434413015842,0.16385785229206085,0.07992500244509428
1789039503642796000,2.275796142578125,0.062467269828915595,0.12996288921386004,0.05055438492354005
1789039503652741000,2.2857412109375,0.10358253954946994,0.1637117218196392,-0.03346110170558095
1789039503662685200,2.295685302734375,0.15733867965638637,0.2256707498654723,0.0021240794818848372
1789039503672629000,2.30562890625,0.20963176147341728,0.14494593881219625,0.12690576666556297
1789039503682573000,2.315572998046875,0.23818156413137911,0.07352291685044765,0.22028116578161716
1789039503692517000,2.32551708984375,0.23577041133642196,0.05076864872872829,0.23487506993189453
1789039503702461200,2.335461181640625,0.17674013021886348,0.039462826338410376,0.15882716464847324
1789039503712406300,2.34540625,0.14157412429153918,0.10158931990563869,0.09605988895967602
1789039503722350000,2.35535009765625,0.17853052076697348,0.09455430670231581,0.0862871944207698
1789039503732294100,2.365294189453125,0.24682547383606432,0.034114743308722974,0.06228460673838854
1789039503742238000,2.375238037109375,0.2567687757015228,0.041759997364878655,0.05204002037141472
1789039503752182300,2.385182373046875,0.14223288046121596,0.048803486135601995,0.04864329060520976
1789039503762127000,2.395127197265625,0.0381546663492918,0.04057750958204269,0.06264299172200262
1789039503772071200,2.4050712890625,0.014375731354951857,0.09572393500357866,0.07475004749260843
1789039503782015000,2.415014892578125,-0.008691255977749824,0.09786445416361093,0.0845197828894481
1789039503791959000,2.424958984375,0.03820435070991516,0.044159459722042084,0.08591134684570133
1789039503801903400,2.4349033203125,0.06202478675842285,0.043105274493992325,0.07132412816453725
1789039503811847200,2.44484716796875,0.05821136595010757,0.012423135982453822,0.0849255141461268
1789039503821792000,2.4547919921875,0.04348725954890251,-0.016639000111818313,0.07069426929578185
1789039503831736000,2.464736083984375,0.09851473476588725,0.034408173297345634,-0.0010283201344311237
1789039503841680100,2.47468017578125,0.16160510492920874,0.04392418966144323,-0.012134418701566755
1789039503851624200,2.484624267578125,0.15722586693167687,0.005766892963647842,0.06951050287131219
1789039503861568300,2.494568359375,0.15649755265712736,-0.0270528420984745,0.17834197592493145
1789039503871513000,2.50451318359375,0.16876432903409003,-0.026853520134091376,0.17698636006489396
1789039503881457200,2.51445703125,0.17922434825003147,-0.0211404031842947,0.12337372008189558
1789039503891401000,2.52440087890625,0.12082009007632731,-0.05554039317518472,0.13525515040308236
1789039503901345300,2.53434521484375,-0.043270401927828786,-0.08472206399589777,0.1856528103949502
1789039503911289000,2.5442890625,-0.12918459831774234,-0.04379968649893999,0.21636647655591368
1789039503921234200,2.554234130859375,-0.09933423445522785,0.0565717820495367,0.22106709199491886
1789039503931178000,2.564177978515625,-0.03523439498841762,0.06646393824964761,0.03536876195780933
1789039503941122000,2.5741220703125,-0.07298457219004631,0.034714170506596566,0.0413168201746419
1789039503951066400,2.58406640625,-0.1088560960382223,0.007652852840721607,0.14935491436086595
1789039503961010200,2.59401025390625,-0.0649070641964674,-0.039871991661190986,0.22644597202166913
1789039503970954200,2.603954345703125,0.015995441511273384,-0.0397647318944335,0.18631017832513896
1789039503980899000,2.613899169921875,0.04468786751031875,-0.0005608487531542777,0.1360972272504121
1789039503990843100,2.623843017578125,0.08112228593826293,0.013850830698013305,0.0834652323352173
1789039504000787000,2.633786865234375,0.12928630512654782,0.0647694092914462,0.008910670882090925
1789039504010731300,2.643731201171875,0.16990823837220667,0.12282266207039355,-0.017310981089249253
1789039504020675000,2.653675048828125,0.20411387483477592,0.11881021155864,0.014699812210164963
1789039504030620200,2.6636201171875,0.19874387223422527,0.07709434559643268,0.016617665062844754
1789039504040564000,2.67356396484375,0.2203437096238136,0.06778115832805633,0.03567216535117477
1789039504050508000,2.683508056640625,0.3009118688106537,0.0719347708761692,0.01642652640491724
1789039504060452000,2.6934521484375,0.30360476115643975,0.10774053601175546,0.03389854327477514
1789039504070396200,2.703396240234375,0.2840753003001213,0.13698679650127887,0.06790387139227241
1789039504080341000,2.713341064453125,0.2908925790995359,0.140884388461709,0.0813886452568695
1789039504090285000,2.72328515625,0.31119010171890255,0.13185937048494814,0.06311908480115234
1789039504100229000,2.73322900390625,0.3781862471491098,0.1224281097948551,0.057103441240824754
1789039504110173200,2.743173095703125,0.49251639068424696,0.08775251773297786,0.04265062606167048
1789039504120117200,2.7531171875,0.5676093333303928,0.07464139948636293,0.0614998861014843
1789039504130061000,2.76306103515625,0.5572685565799474,0.0850496885150671,0.07250062459800392
1789039504140006100,2.773006103515625,0.49085284138619895,0.09340221405774354,0.03691043844185769
1789039504149950000,2.782949951171875,0.40160044048428534,0.09988573085814714,0.031243535253964363
1789039504159894300,2.792894287109375,0.3307774302423,0.08099076851308346,0.056400005679205056
1789039504169838000,2.802838134765625,0.30274609850049017,0.02883797194957733,0.01287077015209943
1789039504179782100,2.8127822265625,0.3324246129274368,0.022980185832083225,-0.014512838270701467
1789039504189727000,2.82272705078125,0.2150502793908119,0.11923223636299371,-0.014637779824621975
1789039504199671000,2.832671142578125,-0.17528934688866138,0.290234115190804,-0.13421806244030593
1789039504209615000,2.842614990234375,-0.5336754995465278,0.5633329711854458,-0.4719087792024016
1789039504219559200,2.85255908203125,-0.6507587411820888,0.523579929728806,-0.6428343779236078
1789039504229503200,2.862503173828125,-0.540566428104043,0.2851230557873845,-0.6584658084280789
1789039504239448000,2.872447998046875,-0.6491255870223045,0.4831152328714728,-0.8596359579611569
1789039504249392000,2.88239208984375,-0.6237877321481704,0.8662111716330051,-0.9999635162577033
1789039504259336200,2.892336181640625,0.0050064299851655955,0.33111294580698014,-1.2119082308486104
1789039504269280300,2.9022802734375,0.6455939057648181,0.26509090610593555,-1.2847516410022972
1789039504279224000,2.91222412109375,1.1496914286494255,0.6611366350725293,-1.5170537917062639
1789039504289169200,2.922169189453125,1.214219722661376,0.798166686193645,-1.1819575484167784
1789039504299113000,2.932113037109375,0.8337240295261145,0.6069993866935371,-0.7708423336774111
1789039504309057300,2.942057373046875,0.1476473067253828,0.3340291255146265,-0.9751638599134981
1789039504319001000,2.9520009765625,-0.1968459296584129,-0.15356734442412853,-1.0033780008763074
1789039504328945200,2.961945068359375,-0.23005846343040465,-0.7184399462670087,-0.651224605128169
1789039504338889200,2.97188916015625,0.2880050409644842,-1.0528636240571736,-0.2603602425885387
1789039504348834000,2.981833984375,0.7703449055492878,-0.7918097183823585,1.1027985984407365
1789039504358778000,2.991778076171875,2.1028882252961396,-1.708099218392372,3.093007516148686
1789039504368722200,3.00172216796875,2.508344756686687,-2.5600237982586025,4.7820811315536496
1789039504378666200,3.011666259765625,2.517929746633768,-1.14987876791507,2.200036055622995
1789039504388610000,3.021610107421875,2.0856459985941647,0.35639264075309035,-0.5136687035020441
1789039504398555100,3.03155517578125,1.1405804859548807,0.27693273506909605,-0.795796157670021
1789039504408499200,3.041499267578125,-0.4546189139664173,-0.519762125006318,-0.5071239215010777
1789039504418443300,3.051443359375,-1.625716118738055,-0.3920680575072765,-0.15871480858149006
1789039504428387000,3.061386962890625,-1.0751841769367456,0.6430114880561828,0.2392430010841228
1789039504438331100,3.0713310546875,-0.15231939018964766,0.8791831736698746,0.3358061085918918
1789039504448276000,3.08127587890625,0.8112474093019962,0.5091469152286648,0.6276382700964808
1789039504458220300,3.09122021484375,1.9088532614052294,0.3151870624005794,0.31178901746012266
1789039504468164000,3.1011640625,1.9804414108008146,0.41923605041801926,0.41655254695508626
1789039504478108200,3.111108154296875,0.6688327425330877,-0.19116525367349385,0.4311962085312232
1789039504488052200,3.12105224609375,-0.7145914541453122,-0.44247664075195786,0.10565233156085013
1789039504497997000,3.1309970703125,-0.7479892813563347,0.3052233022689819,0.04324245447497815
1789039504507941000,3.140941162109375,0.18110358612537383,0.6609396511957049,0.48070886584948747
1789039504517885200,3.15088525390625,1.9276929864317178,0.7046598427176475,0.6520582794733345
1789039504527829200,3.160829345703125,1.773316663712263,-0.09584668460041285,1.42788103191182
1789039504537773000,3.17077294921875,1.4168886593848466,-0.956462812705338,1.1029087808169424
1789039504547718100,3.18071826171875,0.8704869492560624,-1.27542150259912,0.3070616236120462
1789039504557662200,3.190662109375,-1.6875287240505217,-1.8188126327350735,0.800497759489715
1789039504567606300,3.200606201171875,-3.882740428256988,-1.101823177537322,1.4322728371299802
1789039504577550000,3.210550048828125,-2.5192490125387907,0.8562637781143188,0.2847732194364071
1789039504587494100,3.220494140625,-2.2180951516658065,1.5694105864092707,0.047644963750243186
1789039504597438200,3.230438232421875,-1.7140034740000962,1.3138587852820753,-0.01445055015683174
1789039504607382800,3.2403828125,-0.8466723584264516,0.6147378719910979,-0.40903351309448477
1789039504617326800,3.250326904296875,-0.6052841072082519,-0.361380366037786,-0.6460629845812916
1789039504627270700,3.260270751953125,0.013402502408623694,-0.9842021757632493,-0.7010474974393844
1789039504637214700,3.270214599609375,0.9139765468925237,-0.8377768120482564,-0.8730511006556451
1789039504647158500,3.280158447265625,1.2388123121261596,-0.34799598380774255,-0.8439373805046081
1789039504657104000,3.290103759765625,0.9882359613239765,0.07258592826128006,-0.4864100366331637
1789039504667047700,3.300047607421875,0.2646644973874092,0.3590966390147805,0.1745401359565556
1789039504676991700,3.30999169921875,-0.08782266035974025,0.12681436205506325,0.47591231575533743
1789039504686935600,3.319935546875,0.08973404693901538,0.004965805713832378,-0.011969839257001876
1789039504696879600,3.329879638671875,0.421849447786808,0.09161679194569587,-0.6381877211615443
1789039504706824700,3.33982470703125,0.583138910895586,-0.06881167041957378,-0.99472430042997
1789039504716768800,3.349768798828125,0.3645160337150097,-0.34965836406201123,-1.3078202357701956
1789039504726712600,3.359712646484375,0.3095931879162788,-0.2895908488512039,-1.1267233716465532
1789039504736656600,3.36965673828125,0.4999889185220003,-0.05037526549696922,0.039472324819117784
1789039504746600700,3.3796005859375,0.5840548566967249,-0.09172200588583945,1.2079637310065328
1789039504756545800,3.3895458984375,0.5979015957415104,-0.19830840342640876,1.5507254674226045
1789039504766489900,3.39948974609375,0.8198451417773962,-0.30370617570430036,1.2198729261174797
1789039504776433700,3.40943359375,0.8378034077942371,-0.36869478070437905,0.5156983826987445
1789039504786377700,3.419377685546875,0.5683323869079351,-0.5763023428738117,0.15212839766219258
1789039504796321500,3.429321533203125,0.4104904339045286,-0.6914756592348218,-0.09863047010004519
1789039504806267000,3.439266845703125,0.19551029714047907,-0.6268582256346941,-0.492908020350337
1789039504816210700,3.449210693359375,-0.06778115832805633,-0.534801580967009,-0.7890273941874504
1789039504826154800,3.45915478515625,-0.05656476778686046,-0.4690878765627742,-0.67550988220945
1789039504836098600,3.4690986328125,0.241729027479887,-0.4285749566495418,-0.2641008721552789
1789039504846042600,3.479042724609375,0.5690069251686334,-0.35335195788294077,-0.050978638217598196
1789039504855987700,3.48898779296875,0.7358154439598321,-0.16614596322923897,-0.5339277207419276
1789039504865931800,3.498931884765625,0.6324971083045006,-0.3113423696711659,0.3700998251967132
1789039504875875600,3.50887548828125,0.44725218459069727,-0.4530310602530837,1.0568231753379105
1789039504885819600,3.518819580078125,0.21602000120580195,-0.0912409443706274,0.9062088355004787
1789039504895763700,3.528763671875,0.3210445562571287,0.27380349713265895,0.48564577426239847
1789039504905708800,3.538708740234375,0.37703123189508914,0.188753516356647,0.16879194769337771
1789039504915652900,3.54865283203125,0.3862386207014322,-0.028946985282003877,-0.06268953427746891
1789039504925596700,3.5585966796875,0.2614800221323967,-0.09290332462489605,-0.16921061149686573
1789039504935540700,3.568540771484375,0.08755904098749161,-0.047453240570425985,-0.16623539507836102
1789039504945484500,3.578484619140625,0.006272504398226738,-0.018542203384637832,-0.013382190272957086
1789039504955430000,3.588429931640625,0.03535129936635494,-0.015233809489011764,0.18115780053064226
1789039504965373700,3.598373779296875,0.16346622262597083,-0.044119273842126126,0.31736630613580347
1789039504975317800,3.60831787109375,0.2888245406538248,-0.1293099782630801,0.31003713229149577
1789039504985261600,3.618261474609375,0.46505204517543314,-0.167134389744699,0.07050546872541308
1789039504995205600,3.62820556640625,0.3694862233430147,-0.1540614115513861,-0.4209133359804749
1789039505005149700,3.638149658203125,-0.022086159601807594,-0.3181250155486166,-0.24088234752267598
1789039505015094800,3.6480947265625,-0.1219447101920843,-0.040497283952683205,-0.2983341272771358
1789039505025038600,3.65803857421875,-0.27036475485563277,0.23711057389900086,-0.24925270098298788
1789039505034982700,3.667982666015625,-0.6071574998646975,0.2685537599109113,-0.15148089353889227
1789039505044926700,3.6779267578125,-0.5218634811997414,0.13908347651958464,-0.2872156441524625
1789039505054871800,3.687871826171875,-0.33271102865338326,0.08326499705538153,-0.11530746413469314
1789039505064815900,3.69781591796875,-0.21775427765250205,0.026453414900600908,0.10530790203735231
1789039505074759700,3.707759765625,-0.05872106903791427,0.042430443972349165,-0.11803966557756065
1789039505084703700,3.717703857421875,0.18157880242168903,0.22209990564137697,-0.3039331163279712
1789039505094647600,3.7276474609375,0.42793782778978345,0.05918956333249807,-0.36442952447533605
1789039505104591600,3.737591552734375,0.5413134470790625,-0.2607376793324947,-0.43729412354752417
1789039505114536700,3.74753662109375,0.638565030041337,-0.4320483318485319,-0.5618510620646179
1789039505124480800,3.757480712890625,0.7848679364204406,-0.39354266010448335,-0.9674912794589996
1789039505134424600,3.767424560546875,0.78706983037889,-0.27677374511510133,-1.1908115206755696
1789039505144368600,3.77736865234375,0.8351186987549066,-0.4126150248430669,-0.8968199526473879
1789039505154312700,3.787312744140625,0.7512719562888145,-0.2912304327517748,-0.5291685435160994
1789039505164257800,3.7972578125,0.40498949840068815,-0.043996962636709214,0.054769993324577805
1789039505174201600,3.80720166015625,0.08259235849082469,0.15591288463696837,0.6210238203927875
1789039505184145700,3.817145751953125,0.07648761187493801,0.6508269841127097,0.8597221018746495
1789039505194089700,3.82708984375,-0.025977321821451186,1.1807530679978429,0.6970059669636189
1789039505204033500,3.837033447265625,-0.3989163159668445,0.38572307239472864,0.44219431667923925
1789039505213979000,3.846978759765625,-0.3078466365098953,0.19712080107703803,-0.005363572859764099
1789039505223922700,3.856922607421875,-0.04935118314623833,0.32983313512951135,-0.12139599026814102
1789039505233866800,3.86686669921875,-0.006243862825632095,0.20057605609744786,-0.5874959370613098
1789039505243810600,3.876810546875,0.05211655620634555,-0.18220599440932272,-1.361394443438947
1789039505253754600,3.886754638671875,0.2883446481823921,-0.4442250918544829,-1.4083885420650244
1789039505263699700,3.89669970703125,0.9642939447224139,0.13261428050547838,-1.4861508500508964
1789039505273643800,3.906643798828125,0.3484107020884752,-0.3331980815179646,1.1383467355534433
1789039505283587600,3.916587646484375,-0.8107698549181223,-0.961392816453427,3.4768016663074492
1789039505293531600,3.92653173828125,-1.1832330482453106,-0.3697176940113306,2.7918352428361772
1789039505303475700,3.936475830078125,-1.0568079777687787,0.7022375840067863,0.7285381464332342
1789039505313420800,3.9464208984375,-1.3528624696761369,0.13833485010936855,-0.018954437447339295
1789039505323364600,3.956364501953125,-1.3400392284601925,-0.2682971548013389,-0.6600571692727506
1789039505333308700,3.96630859375,-0.8902660009592771,-0.32609248729646206,-1.062688414109498
1789039505343252700,3.976252685546875,-0.43187575176060194,-0.6743747406996786,-1.0924471541658043
1789039505353196500,3.986196533203125,-0.019248305827379224,-0.8429672202982008,-1.0827394146218896
1789039505363142000,3.996141845703125,0.0012087912678718567,-0.9299468539625406,-1.1753238825559615
1789039505373085700,4.006085693359375,-0.12191139244437217,-1.0219188890866935,-1.5812915783390402
1789039505383029800,4.01602978515625,-0.49968438261747355,-1.0926328859962522,-1.555613677855581
1789039505392973600,4.0259736328125,-0.8050047155201434,-0.9755316703125834,-0.5652098709732294
1789039505402918700,4.035918701171875,-0.4702075282424688,-0.6992695279814303,-0.34657471883296964
1789039505412862700,4.04586279296875,-0.005685644420981407,-0.5188523166850209,-0.6374537077985704
1789039505422806800,4.055806884765625,0.21937807946205137,-0.5921135138593614,-0.527946746636182
1789039505432750600,4.06575048828125,0.31128187165558335,-0.5548952515773475,-0.3768318368654698
1789039505442694700,4.075694580078125,0.3413204515665769,-0.43542642997950315,-0.3392903339784592
1789039505452639500,4.085639404296875,0.08350596620440483,-0.39138752789720893,-0.19053813475109635
1789039505462583800,4.095583740234375,-0.11330430761873721,-0.1297027769729495,0.2581659291483462
1789039505472527600,4.105527587890625,-0.03307575564980507,0.3323331352517009,0.7347836166940629
1789039505482471700,4.1154716796875,0.14920564208328724,0.7006102750658989,0.9274288797922432
1789039505492415700,4.125415771484375,0.15351882910728454,0.9777470082744956,0.7476744432535022
1789039505502360600,4.135360595703125,0.15562369243204593,1.1429138973385096,0.543955193759501
1789039505512305000,4.145304931640625,0.41537236072719097,1.3300360131010411,0.6907772286418825
1789039505522248700,4.155248779296875,0.9615139586150646,1.5499664657488463,1.0597256918463855
1789039505532192800,4.16519287109375,1.4557465055674315,1.4306266773581504,1.1833404541425405
1789039505542136600,4.175136474609375,1.8101608319848774,1.0415689075827599,0.7692867747984826
1789039505552081700,4.18508154296875,2.1703923202484843,0.5501634007498621,0.46582595215737815
1789039505562025700,4.195025634765625,2.6024820070207118,0.10832798051089047,0.47929333649575706
1789039505571969800,4.2049697265625,2.705127557981014,-0.20038141030818224,0.6709466659471393
1789039505581913600,4.21491357421875,2.632584884339571,-0.3317562121465802,1.0012302482578903
1789039505591857700,4.224857666015625,2.23244984023273,-0.17419219930171967,1.1982893092103302
1789039505601803000,4.234802978515625,1.474447698906064,-0.0413289124712348,0.9631584378864616
1789039505611747000,4.2447470703125,0.862451526838541,-0.0016430910319089889,0.8264662404175848
1789039505621691000,4.25469091796875,0.35547581816911694,0.2639975579112768,0.9890474238373339
1789039505631635000,4.264635009765625,-0.12795067260861395,0.41931963704824443,1.4958865005150437
1789039505641579300,4.274579345703125,-0.38018881914317604,0.33141251327544446,1.6928905433446169
1789039505651524000,4.284524169921875,-0.6819459066063165,0.08942746520787477,1.7951732523418962
1789039505661468000,4.294468017578125,-1.016444987720251,-0.049394730027019974,1.5156579534336925
1789039505671412000,4.304411865234375,-1.363763218396902,-0.014595511585474013,0.9815279881179332
1789039505681356000,4.31435595703125,-1.6793728901237248,-0.2658241888165474,0.3211918557733297
1789039505691300000,4.324300048828125,-1.8747154294818638,-0.5155801631465554,-0.39053456432968375
1789039505701245200,4.3342451171875,-1.9823831925183533,-0.7250549804925918,-1.0899831021398305
1789039505711189000,4.34418896484375,-1.8825293181031941,-1.1260051403746008,-1.4841057540893554
1789039505721133000,4.354133056640625,-1.5352023195981979,-1.2074807697951793,-1.3836984835751354
1789039505731076900,4.364076904296875,-0.7178659457713366,-1.184220597977936,-0.8067872150227428
1789039505741021200,4.374021240234375,0.1989075383633375,-1.3188701837033032,0.12534238980636
1789039505750966000,4.383966064453125,0.8582154967039823,-1.1712193698465823,1.0414024649746716
1789039505760910000,4.39391015625,0.9535165301203727,-0.7100006192237138,1.3813580579288303
1789039505770854000,4.40385400390625,0.5724047509133815,-0.24033172790259122,1.305283410768956
1789039505780798000,4.4137978515625,-0.1743821689158678,0.04222556905001402,0.887312119589746
1789039505790742300,4.4237421875,-0.8651420810967684,0.046889469207823276,0.33123920253515243
1789039505800687000,4.43368701171875,-1.1286889726310967,-0.014830197124183177,0.043903585264831776
1789039505810631000,4.443630859375,-0.967085621267557,-0.018163140939176082,-0.1404427821740508
1789039505820575000,4.453574951171875,-0.7076023259103298,0.21272972748875615,-0.700121322505176
1789039505830519000,4.46351904296875,-0.06666647508442401,-0.3045677609696984,-0.7998619458042084
1789039505840464100,4.473464111328125,0.6954074457257986,-1.1518456840738653,-0.7163603635139763
1789039505850408200,4.483408203125,1.4247241753160953,-1.3572268023654819,-0.4324608581721782
1789039505860352000,4.49335205078125,1.4516308869421481,-1.1412003714188932,0.2873733189322054
1789039505870296000,4.503296142578125,0.7129343345880508,-0.6964893957436085,0.9062954908706248
1789039505880239900,4.513239990234375,0.06599778204262256,-0.07487140884995461,1.0536943757928907
1789039505890185200,4.523185302734375,-0.385185312256217,-0.025012276181578634,1.1479583212465048
1789039505900129000,4.53312890625,-0.5656681361347436,-0.21732348501980303,1.092064438458532
1789039505910073000,4.543072998046875,-0.23990005848705767,-0.20935294453203676,0.8398483576253056
1789039505920017000,4.553016845703125,0.49081952363848685,-0.27216391323208805,0.5667610459379852
1789039505929961000,4.5629609375,1.2629723553925751,-0.48412557895779607,0.3947448755010962
1789039505939906000,4.572906005859375,1.805883300796151,-0.6246484406307339,0.10817103638350963
1789039505949850000,4.58285009765625,1.8755583100467919,-0.5310971734911203,-0.04182882481738925
1789039505959794000,4.5927939453125,1.6301467946618795,-0.3217883603617549,0.010199760844558477
1789039505969738000,4.602738037109375,1.553816419175267,0.08880056548118591,0.17045155146867036
1789039505979682000,4.61268212890625,1.5313982511401176,0.5068737095996737,0.4817595804788172
1789039505989627100,4.622627197265625,1.500579919028282,0.8032470581978559,0.7770216068342327
1789039505999571200,4.6325712890625,1.5411428155630826,1.077658165834844,0.9446396884426475
1789039506009515000,4.642514892578125,1.390402803519368,1.4022931477993725,0.914392872608453
1789039506019459000,4.652458984375,1.312680681413412,1.7164809700295327,0.9013393297679722
1789039506029403000,4.66240283203125,1.8496897092968225,1.782872719825804,0.7950386173009872
1789039506039348200,4.67234814453125,2.5791326956152916,1.8542331979453563,0.4718703468881547
1789039506049292000,4.6822919921875,2.810420408579707,1.8535373246356843,0.5289655682899057
1789039506059236000,4.692236083984375,2.5387626913040875,1.8159961140096186,0.6256225463598967
1789039506069180000,4.702179931640625,2.0386825873672962,1.7401921004846692,0.5879973107121884
1789039506079124000,4.7121240234375,1.4619225638538598,2.4717007871612906,-0.5469444387033582
1789039506089069000,4.722069091796875,0.5415981092393398,2.269354506520927,0.17036621127277612
1789039506099013000,4.73201318359375,0.09423954166471958,1.6993164847388862,1.3461141644597052
1789039506108957000,4.74195703125,0.33742870482504367,1.6942220842093227,2.3403562343306836
1789039506118901000,4.75190087890625,0.7932365363150835,1.8723638979196546,2.1087056794032453
1789039506128846000,4.76184619140625,1.0331856946408748,2.0709426427200435,1.6082403755411505
1789039506138790100,4.7717900390625,1.2341636095374822,1.511751301383972,1.398529849743098
1789039506148734200,4.781734130859375,1.6503303355127572,0.9402984443679452,0.8125763198181987
1789039506158678000,4.791677978515625,1.8494114768773315,0.7006786641269922,0.0295918590568006
1789039506168622000,4.8016220703125,1.8116437640190124,0.5303063153743743,-0.39408261220008134
1789039506178567200,4.811567138671875,1.422311268955469,0.43473640188872814,-0.49659226182103156
1789039506188511200,4.82151123046875,0.6282283449441194,0.6643257865026593,-0.18531243599206207
1789039506198455000,4.831455078125,-0.22122341506779192,1.077427279688418,0.5371972439318895
1789039506208399000,4.841399169921875,-0.9682400519996881,1.5228791368588803,1.1837731464713812
1789039506218343000,4.851343017578125,-1.5896557943195104,1.9701558713689444,1.1550514943778514
1789039506228288300,4.861288330078125,-1.861945379757881,1.987986127091944,0.8484718090638518
1789039506238232000,4.871232177734375,-1.4333324291855096,0.8616735282033682,1.3326704532578586
1789039506248176000,4.881176025390625,-0.12905717254579066,0.8231096965312957,-0.07394464939385652
1789039506258120000,4.891119873046875,0.4656675467252731,-0.09111468764245509,-0.8026645821347832
1789039506268064000,4.90106396484375,0.5595604669094085,-1.0799044834569096,-1.0123670707568526
1789039506278008800,4.9110087890625,0.08222995491921901,-1.4674068404838443,-1.1682298326417804
1789039506287953200,4.920953125,-0.7533984469234943,-1.2602157501608133,-1.5179679839417337
1789039506297897200,4.930897216796875,-1.3743816430449485,-1.5084472914025187,-1.426289232675731
1789039506307841000,4.940841064453125,-1.6128256575047968,-1.7905851938992738,-1.3668854420706629
1789039506317785000,4.95078515625,-1.6120955896645783,-1.8130792036496102,-1.0702338610529898
1789039506327730000,4.96072998046875,-1.4286545005023479,-1.758377014864236,-0.7334501761332154
1789039506337674200,4.97067431640625,-1.0835065996021032,-1.5946429350823164,-0.4861652680918574
1789039506347618000,4.9806181640625,-0.5823614967823029,-1.5370406409412622,-0.47747839602828024
1789039506357562000,4.99056201171875,-0.02964695024490356,-1.537607919435203,-0.7329016023397446
1789039506367507000,5.0005068359375,0.4023006977081299,-1.5902778717406094,-1.2009417234152555
1789039506377451000,5.010450927734375,0.2745212900131941,-1.8174179635062813,-1.7112535907700657
1789039506387395000,5.02039501953125,-0.43480888260304923,-1.8330359500072895,-2.403444120275974
1789039506397339100,5.030339111328125,-1.4167472050875425,-1.656356756195426,-2.853216763255
1789039506407283000,5.040282958984375,-2.4056740712851283,-1.724718344759941,-2.8673201074093577
1789039506417228000,5.05022802734375,-2.7318548213869334,-1.6357044287890194,-2.623533270616829
1789039506427171800,5.060171875,-2.6999738284796475,-1.388696584123373,-1.8645792353928088
1789039506437116200,5.0701162109375,-2.052618173739314,-1.2856775236755609,-1.1259867279350757
1789039506447060200,5.080060302734375,-1.045028108125925,-1.135278434024006,-0.5001838565722108
1789039506457005000,5.090005126953125,-0.1471855344325304,-1.2326315776646137,-0.006106207920610904
1789039506466948900,5.099948974609375,0.38488194539546966,-1.2622110156312585,0.2670069688603282
1789039506476893000,5.109892822265625,0.4677811778783798,-1.0532185019094495,0.655318304182589
1789039506486837200,5.119837158203125,0.12080430798530578,-0.6895015826828778,0.737846657526493
1789039506496781000,5.129781005859375,-0.10661270102560519,-0.28604908459112044,0.6029629707843065
1789039506506726100,5.13972607421875,-0.13570552451908588,-0.06756729638166725,0.5406953151807189
1789039506516670000,5.149669921875,-0.29476152948737144,0.1352581826103851,0.421233946236968
1789039506526614000,5.159614013671875,-0.6598147388190031,0.15565481822267174,0.17893325634896753
1789039506536558000,5.16955810546875,-0.9889069924533367,0.07629866517409682,0.07374386612474917
1789039506546502100,5.179502197265625,-1.1046651229649782,0.27353563997671004,0.2960954084396362
1789039506556447000,5.189447021484375,-0.9970715942084789,0.44405126965753733,0.5705427564337849
1789039506566391000,5.19939111328125,-0.7112485734581947,0.3874085412636399,0.8361039103999733
1789039506576334800,5.2093349609375,-0.4795318214267492,0.21924027842655777,0.9805559282153844
1789039506586279200,5.219279052734375,-0.545948705664277,0.2188380543012172,0.9304171018227935
1789039506596223200,5.22922314453125,-0.338123701351881,0.18944639399163424,1.1725918272435665
1789039506606167600,5.23916748046875,0.3077735712736845,0.02019939600713551,1.6176605303153395
1789039506616111900,5.24911181640625,1.0506424408763646,0.4584617069996893,1.6843097620040177
1789039506626055700,5.2590556640625,1.4057365662515162,0.5511513888739049,1.8212872061550616
1789039506635999700,5.268999755859375,1.5751421157985925,0.28268574563786386,1.6331816323131323
1789039506645944600,5.278944580078125,1.4414906011998652,0.2255572064884007,1.253314007948339
1789039506655888600,5.288888671875,0.9707698627382516,0.05973331482037902,0.8748732015162706
1789039506665832400,5.29883251953125,0.38957390260398383,-0.2320280099377036,0.41988925362974405
1789039506675776800,5.30877685546875,-0.09391396297216414,-0.5246538425706326,-0.4394859345033765
1789039506685720600,5.318720458984375,-0.38686990434229374,-0.8754844652824103,-1.298840372109413
1789039506695665700,5.328665771484375,-0.5254249730736017,-1.3651426900565624,-1.6782096915632485
1789039506705609500,5.338609375,-0.5617524239957332,-1.7339435614839196,-1.8798890327274798
1789039506715553500,5.348553466796875,-0.5779951182663441,-1.9051691660650074,-1.8473586360007523
1789039506725497600,5.35849755859375,-0.5589397046625614,-1.9937733321912585,-1.7397282823652027
1789039506735441700,5.368441650390625,-0.5821545760333537,-1.9173313130237162,-1.6719745965659618
1789039506745386500,5.378386474609375,-0.30972645890712736,-1.9167356852181254,-2.1064245827287436
1789039506755330600,5.38833056640625,0.7920856127142906,-2.180245167351514,-2.715550752317905
1789039506765274600,5.398274658203125,1.6991273919075727,-2.394535422155261,-2.7438030333340167
1789039506775218700,5.40821875,2.4223323606193063,-2.2630065987989303,-2.5401702200144527
1789039506785163500,5.41816357421875,2.6242811663746832,-2.215840212345868,-2.0615853240489956
1789039506795107600,5.428107666015625,2.2931150290757416,-1.9745986761219798,-1.458193898719549
1789039506805051600,5.4380517578125,1.643898256638646,-1.4526859489530324,-1.0544172832399605
1789039506814995500,5.447995361328125,0.8631237270116805,-1.1054758548259735,-0.7916530665159225
1789039506824939800,5.457939697265625,-0.012245733588933943,-0.8854146154053508,-0.5450701692640781
1789039506834884600,5.467884521484375,-0.812120685005188,-0.5699623261973261,-0.5761065280407667
1789039506844828700,5.47782861328125,-1.1805091762393711,-0.3812595171146095,-0.6196300279468298
1789039506854772500,5.4877724609375,-1.1229857925534248,-0.2822933853194117,-0.5388444266170263
1789039506864716500,5.497716552734375,-0.7106482694774866,-0.24991204167455433,-0.44690030241310597
1789039506874660600,5.50766064453125,0.007789923223853111,-0.220980838483572,-0.46270635883212086
1789039506884605700,5.517605712890625,0.6490770717054605,-0.25264906542301174,-0.4931687171131372
1789039506894549500,5.527549560546875,1.0671645366102456,-0.3786661396205425,-0.5394967530459165
1789039506904493600,5.53749365234375,1.3173866671472787,-0.4796972411215305,-0.6079653091162442
1789039506914437600,5.547437744140625,1.375275961536169,-0.5295566660508513,-0.7219137598574161
1789039506924382700,5.5573828125,1.109184061694145,-0.5363932340726256,-0.6621212621957063
1789039506934326500,5.567326416015625,0.6422773285627364,-0.49103638125956056,-0.5442185208708048
1789039506944270600,5.5772705078125,0.24590076020658014,-0.5112395035937428,-0.3945551981478929
1789039506954214700,5.587214599609375,-0.10677519811093807,-0.5832511390984058,-0.2618354114413261
1789039506964158500,5.597158447265625,-0.4012175786465406,-0.6476765572577714,-0.34796354284286496
1789039506974103800,5.607103759765625,-0.5555693514466286,-0.705196141551435,-0.5774830770909786
1789039506984047600,5.617047607421875,-0.5968588086903095,-0.6420490727648138,-0.8222305756092071
1789039506993991700,5.62699169921875,-0.4797404957413673,-0.4977241884604096,-1.2902420551121234
1789039507003935500,5.636935546875,-0.12508300821781157,-0.4290490039020777,-1.8805203163683413
1789039507013880800,5.646880859375,0.36796354382038116,-0.47506958132088184,-2.223486197054386
1789039507023824600,5.65682470703125,0.8526344817012548,-0.5116168124735355,-2.427013796433806
1789039507033768700,5.666768798828125,1.2890016996622085,-0.4993722479283809,-2.4328566772431133
1789039507043712500,5.67671240234375,1.614477516365051,-0.4988806650191545,-2.176415233799815
1789039507053656600,5.686656494140625,1.7213754640728234,-0.45984395513832566,-1.8566180472552776
1789039507063601700,5.6966015625,1.607567883107066,-0.38059769220501183,-1.5375374845474958
1789039507073545700,5.706545654296875,1.4089233795940874,-0.28863194069117304,-1.324741706085205
1789039507083489500,5.716489501953125,1.2930138579130173,-0.205085350215435,-1.091712702411413
1789039507093433600,5.72643359375,1.274554656636715,-0.17565554985255002,-0.7544897492915391
1789039507103378400,5.73637841796875,1.4545581725656986,-0.2895651298880577,-0.640004707455635
1789039507113322800,5.74632275390625,1.7373451866209506,-0.47870589199662206,-0.5017097509652376
1789039507123266800,5.756266845703125,1.7676450478166341,-0.48165451266914605,-0.2410264321684837
1789039507133210600,5.766210693359375,1.7159312271922826,-0.24143588975220917,0.04777092821747064
1789039507143154700,5.77615478515625,1.7988900809079407,0.09816752876341342,0.3491162200093269
1789039507153099500,5.786099609375,1.9348089559167623,0.31359277894645926,0.6221650993824005
1789039507163043800,5.7960439453125,2.1327046868890522,0.37436405851244925,0.8775929818689823
1789039507172987600,5.805987548828125,2.409959201258421,0.4000193087726831,1.001299148775637
1789039507182931700,5.815931640625,2.590411045476794,0.4011605877622962,0.9342083107993007
1789039507192876500,5.82587646484375,2.7980010719895363,0.23899404955804346,0.9031810121119022
1789039507202820600,5.835820556640625,2.922742134901881,0.09858780000209807,0.8250535240754485
1789039507212764700,5.8457646484375,2.889240847316384,0.016064999616146085,0.568377395093441
1789039507222708700,5.855708740234375,2.8263948073029517,-0.05556465083360672,0.4347916392073035
1789039507232652500,5.865652587890625,2.86492882835865,-0.1014826446607709,0.2810088984668255
1789039507242597600,5.87559765625,2.914623710376024,-0.08477467096596955,0.22219255236089228
1789039507252541400,5.88554150390625,2.8250451462596655,-0.019501988327503203,0.3640355567216873
1789039507262485800,5.89548583984375,2.53499077154994,0.0058513563767075534,0.4281652068048715
1789039507272429800,5.905429931640625,2.162629285031557,0.0753527626261115,0.44647301691174507
1789039507282374700,5.915374755859375,1.7467121499031781,-0.09028203621059655,0.297899242991209
1789039507292318500,5.925318359375,1.0912445003777742,-0.3258876123741269,-0.027515783435106276
1789039507302262500,5.935262451171875,0.2818132005870342,-0.528296436856687,-0.49159343062043187
1789039507312206800,5.945206787109375,-0.44217678102254865,-0.734152186922729,-0.9426070135712623
1789039507322150700,5.955150634765625,-0.7903314625233411,-0.9689765495806932,-1.0213859512537717
1789039507332095700,5.965095703125,-0.7603601026296615,-1.0809130759775638,-0.9729945530503987
1789039507342039600,5.97503955078125,-0.6254080268263816,-1.034087611916661,-0.563084549382329
1789039507351983600,5.984983642578125,-0.5269231026768684,-0.8763359675452113,-0.08917349044680595
1789039507361927700,5.994927734375,-0.5417857407659292,-1.0471440773665905,-0.060871525070071215
1789039507371872800,6.004872802734375,-0.9706734166264533,-1.308726683090627,-0.6791764418929815
1789039507381816600,6.014816650390625,-1.4659236161887645,-1.4727142992421984,-1.3752818067550658
1789039507391760600,6.0247607421875,-1.6947054838120936,-1.7622165930271148,-1.9437720145732162
1789039507401704400,6.034704345703125,-1.4522890585899353,-2.079502089011669,-2.261971118271351
1789039507411648800,6.044648681640625,-0.6976338896036147,-2.454380819047987,-2.3783184468477963
1789039507421593600,6.054593505859375,-0.11072598156332969,-2.6928613661259413,-2.0881956830769774
1789039507431537700,6.06453759765625,-0.13199907121658325,-2.6309073065161703,-1.729599102538824
1789039507441481500,6.0744814453125,-0.4720768292456865,-2.321910623188317,-1.5313240168601274
1789039507451425500,6.084425537109375,-0.9285860870033502,-1.927554162482917,-1.2192910345762968
1789039507461370600,6.09437060546875,-1.1198586004436015,-1.8859306509792804,-0.565139728346467
1789039507471314700,6.104314697265625,-0.7635650361508131,-1.8869304756715892,-0.23308219516575335
1789039507481258800,6.1142587890625,-0.08538812668919563,-1.5656544487461448,0.19472528424263
1789039507491202600,6.12420263671875,0.060979661619663235,-1.072699374383688,0.37568858511447906
1789039507501146600,6.134146728515625,-0.19023790969550608,-0.5547428374946117,0.4036795848459005
1789039507511091700,6.144091796875,-0.34551205803751944,-0.19667320344001055,0.40451077497303484
1789039507521035800,6.154035888671875,-0.19318565358519554,0.033116379921138285,0.48412616347968573
1789039507530979600,6.1639794921875,0.18994740231633186,0.2134098187074065,0.7096499060899019
1789039507540923600,6.173923583984375,0.5149912573426961,0.37780718470364805,1.0618144077539444
1789039507550868700,6.18386865234375,0.6699035866349935,0.6540647969901562,1.460176596969366
1789039507560812800,6.193812744140625,0.8510773153871297,0.9525532380461692,1.7593430834174155
1789039507570756600,6.203756591796875,0.9597393501579761,1.3520467693790792,1.8638176033705471
1789039507580700700,6.21370068359375,1.051969890087843,1.7065405907735227,1.8834587079077958
1789039507590644500,6.22364453125,1.229900691395998,1.7949512801542877,1.7051608268529175
1789039507600589800,6.23358984375,1.400186530908942,1.9161440029352903,1.3750906680971384
1789039507610534100,6.2435341796875,1.278317808562517,2.111487419076264,1.0417173761427403
1789039507620478200,6.253478271484375,1.1877157466173172,2.13235455827713,0.7948205906361341
1789039507630422000,6.263422119140625,1.3078741579145192,1.9685200868606567,0.33566578680574893
1789039507640367000,6.2733671875,1.2272060454845428,1.5794953425720333,-0.07505319515764713
1789039507650311200,6.283311279296875,1.0346955146819352,1.1256979741215705,-0.30333471204340456
1789039507660255200,6.293255126953125,0.7868547263234853,0.7126654545187949,-0.6055360361427068
1789039507670199000,6.303198974609375,0.3790834882497787,0.25255320383310315,-1.0445903012305497
1789039507680143000,6.31314306640625,-0.023578443986177443,-0.062490066182613366,-1.5513041440933941
1789039507690088000,6.323087890625,-0.2915945898890495,-0.271843302975595,-2.117888226029277
1789039507700032300,6.3330322265625,-0.3896025441765785,-0.4444453104764223,-2.58150410092175
1789039507709976300,6.342976318359375,-0.1392033035069704,-0.5400739684119821,-2.96015621201694
1789039507719920000,6.352920166015625,0.3184177148848772,-0.6425371485427022,-3.193845140904188
1789039507729865000,6.362864990234375,0.380045319019258,-0.841076730376482,-3.248442992532253
1789039507739809000,6.37280908203125,0.7218915480256081,-1.1001263104915617,-2.6640152108699082
1789039507749753300,6.38275341796875,1.4492191496253013,-0.86319007024616,-1.7532704855054615
1789039507759697200,6.392697265625,1.6833908935934305,-0.0420452440470457,-0.4890875852793455
1789039507769642200,6.402642333984375,1.1768605906039475,0.886077317097783,0.8424550329923629
1789039507779586000,6.4125859375,0.5163330273404717,2.091335734668374,0.6421428885281085
1789039507789530000,6.422530029296875,-0.14389409167170525,2.641290753364563,0.5094172566026449
1789039507799474200,6.43247412109375,-0.4580567794606089,1.9202724810421465,1.9165747955679893
1789039507809418200,6.442418212890625,-0.07680500726103782,1.6635598194420336,2.7046085025429725
1789039507819363000,6.452363037109375,0.6632920595407485,1.899456195245683,2.97869490827024
1789039507829307100,6.46230712890625,1.3816723845750092,2.0180665003180502,3.1882448366791007
1789039507839251000,6.4722509765625,1.6981623462677,1.5001578942239284,2.8772037880420682
1789039507849195300,6.4821953125,1.0745499706864357,1.0662748942941427,3.33546953407824
1789039507859140000,6.49214013671875,0.3437567388027906,1.0368243434041737,4.819885669291019
1789039507869084200,6.502084228515625,0.6790227126359939,0.3332248233944177,2.975764700037241
1789039507879028000,6.512028076171875,0.9320587315499782,0.15148352388739586,2.002790605252981
1789039507888972000,6.521971923828125,0.822353909727931,0.01686053390800953,1.685003004965186
1789039507898916400,6.531916259765625,0.5334913751512765,-0.20515783092975615,1.5444628998965024
1789039507908861200,6.541861083984375,0.3118435971915722,-0.3691851945698261,1.050697970455885
1789039507918805200,6.55180517578125,0.12456044564843177,-0.730813690149784,0.3466284948468208
1789039507928749000,6.5617490234375,0.12460486931204795,-1.096923715057969,-0.3992956706732511
1789039507938693000,6.571693115234375,0.17001579039990902,-1.5081436322808264,-1.1295365293711424
1789039507948638200,6.58163818359375,0.39976270366311073,-1.9869521078690886,-1.9139356792360542
1789039507958582300,6.591582275390625,0.4684089543879032,-2.124962109938264,-2.8066613483071325
1789039507968526000,6.601526123046875,-0.008602993172407149,-1.8344351492807267,-3.5226743596881627
1789039507978470100,6.61147021484375,-0.4031055843502283,-1.5229048558220266,-3.5616567090332505
1789039507988415200,6.621415283203125,-0.41168578116893767,-0.9210428320169448,-3.09175079408586
1789039507998359300,6.631359375,0.0505634815454483,-0.23508038324564695,-2.2616566454946994
1789039508008303000,6.64130322265625,0.8048457255661488,0.16597586735934017,-1.1900801376610994
1789039508018247200,6.6512470703125,1.6880477794885635,0.3191515821173787,-0.3613485095947981
1789039508028191000,6.66119091796875,2.192273312667012,0.2696346870154142,0.10672960540354251
1789039508038136300,6.67113623046875,2.3751216966331006,0.20157763435542583,0.4088292226940393
1789039508048080100,6.681080078125,2.3102865286290646,0.18372224419116973,0.8988105419427156
1789039508058024200,6.691024169921875,2.004771549937129,0.0805503312692046,1.4033230753690003
1789039508067968300,6.70096826171875,1.348873107779026,-0.27615619773864747,1.716609272584319
1789039508077913000,6.7109130859375,0.5954436811953783,-0.45640229025185103,1.9262422031015156
1789039508087857200,6.720857177734375,0.06359247446656227,-0.5957102231770753,1.7749369583904742
1789039508097801200,6.73080126953125,-0.39399756426513194,-0.9826929402440786,1.447097335165739
1789039508107745300,6.740745361328125,-0.852279676914215,-1.358082542411983,1.0378624542802573
1789039508117689000,6.750689208984375,-1.15113753580451,-1.7059084303498266,0.3956038304179907
1789039508127634200,6.76063427734375,-1.4401450318098068,-1.9730857873409986,-0.14701017786562443
1789039508137578200,6.770578125,-1.6469360168993472,-1.9686866755992174,-0.19227496848106382
1789039508147522300,6.780522216796875,-1.6356944919168948,-1.635798536813259,0.4761842645645141
1789039508157466000,6.790466064453125,-1.04322836522758,-1.1637167391315102,1.3066507535994052
1789039508167411200,6.8004111328125,-0.10359832164049149,-0.8947399315029382,1.9608061514824628
1789039508177355000,6.81035498046875,0.5801537576049566,-0.6275011997133493,2.066340994143486
1789039508187299300,6.82029931640625,0.48851300026178357,-0.300715469455719,1.7557377524018287
1789039508197243100,6.8302431640625,-0.3461678915977478,-0.3668912384137511,1.088773726350069
1789039508207188200,6.840188232421875,-0.9237567671507596,-0.7589104883432388,0.6894342165350914
1789039508217132000,6.850132080078125,-0.7945867818802594,-0.912996888205409,0.716119394364953
1789039508227076000,6.860076171875,-0.28567279862463474,-0.9720096336662769,0.8686486279129981
1789039508237020200,6.870020263671875,0.5448258391141891,-1.2434437713190913,0.841940069207549
1789039508246964200,6.879964111328125,1.2959288685768842,-1.4963494418516754,0.830123374685645
1789039508256909000,6.889908935546875,1.701304735946655,-1.501231076413393,1.0880232002437114
1789039508266853000,6.89985302734375,1.4952975947111844,-1.2221838334083557,1.4333002804815769
1789039508276797200,6.909797119140625,0.6904653131484985,-0.8484563192337751,1.6923966223478317
1789039508286741200,6.9197412109375,-0.2270896767526865,-0.5182356460914015,2.013378050240874
1789039508296686000,6.92968603515625,-0.7594172688215971,-0.306086641100049,2.342154662054777
1789039508306630100,6.939630126953125,-0.9994190341174601,-0.2521060445874929,2.3584821119993924
1789039508316574200,6.94957421875,-1.2927145827054978,-0.7042351875647902,2.3495237295180558
1789039508326518000,6.95951806640625,-1.3909844027996063,-0.8780462785944342,2.649190566703677
1789039508336463000,6.969463134765625,-1.3757821574926377,-0.7133186577305197,2.851280826756358
1789039508346407200,6.9794072265625,-1.4061024769544601,-0.6348407488211989,2.918204491472244
1789039508356351200,6.989351318359375,-1.3046809148311613,-0.7697289656080305,2.9692654011458157
1789039508366295000,6.999294921875,-1.2765636583715676,-0.7919934043861925,2.996031242996454
1789039508376239000,7.009239013671875,-1.3391981014609335,-0.6127285779953002,3.0079946525126693
1789039508386184200,7.01918408203125,-1.338658587756753,-0.3075523297384381,2.9319565379709003
1789039508396128300,7.029128173828125,-1.5871072788804768,0.05297098107859492,2.493296825158596
1789039508406072000,7.039072021484375,-2.6205226906239987,0.1840703269764781,1.6743711363136768
1789039508416016100,7.04901611328125,-3.211158094754815,0.025789836425334212,1.5851649126410483
1789039508425961200,7.058961181640625,-2.4860516763359306,0.27661753164008257,1.769618393716216
1789039508435905300,7.0689052734375,-1.3472814546734093,0.5333921525605022,1.8665636872082947
1789039508445849000,7.07884912109375,-0.6532704317420721,0.591385930237174,1.8060890525013207
1789039508455793200,7.088793212890625,-0.47161330338716506,0.3692519761957228,1.193061199298501
1789039508465738000,7.098738037109375,-0.6324526846408843,-0.24765944044217467,0.3809142108082771
1789039508475682000,7.10868212890625,-0.7875012075334787,-0.6225405085660517,-0.3581839080840349
1789039508485626000,7.118626220703125,-0.980032781124115,-0.6942403016425669,-0.9494096793234348
1789039508495570200,7.128570068359375,-1.1541752960652112,-0.6087685883231461,-1.4428022683203219
1789039508505514200,7.13851416015625,-1.2524421935498713,-0.5035797826208174,-1.758368685427308
1789039508515459000,7.148458984375,-1.3461159180253743,-0.45830490900278087,-1.8151812904953954
1789039508525403100,7.158403076171875,-1.5091712217628954,0.012389525973796844,-1.9437328516066072
1789039508535347200,7.16834716796875,-1.7843156121104955,0.42334027086645365,-1.9757494535923004
1789039508545291300,7.178291259765625,-2.0152257239341735,0.51080184282884,-1.6985843710720538
1789039508555236000,7.188236083984375,-1.8187100491434334,0.7569315894857048,-1.1232266155719757
1789039508565180200,7.19818017578125,-1.0828846683114766,1.1904251517064868,-0.34007834255099295
1789039508575124000,7.2081240234375,0.030557050827145573,1.3763845072999596,0.43034898058474064
1789039508585068300,7.218068359375,1.4261089076727629,1.5027002721831202,1.1376999620825052
1789039508595013000,7.22801318359375,2.7233669790267943,1.6635668337047098,1.6614736608177423
1789039508604956700,7.237956787109375,3.392386184042692,1.6750728548422456,1.8264140476495025
1789039508614900500,7.247900390625,3.4214714087516067,1.695620552830398,1.7249977462232111
1789039508624844800,7.2578447265625,2.9527509041965008,1.7202695486575363,1.0705033256441354
1789039508634789600,7.26778955078125,2.4076672909289596,1.452021055303514,0.7035276238173246
1789039508644733700,7.277733642578125,2.080132788130641,1.2849892491504549,0.5812070660501718
1789039508654677500,7.287677490234375,2.200404596674442,1.3504443026185036,0.41467502611279483
1789039508664621600,7.29762158203125,2.532339964780211,1.3317401866704224,0.18062486269772052
1789039508674566000,7.30756591796875,3.1162036828190085,0.9981932917147874,-0.15597615913152693
1789039508684510700,7.3175107421875,3.628641164025664,0.5521247639507055,-1.0327613317489623
1789039508694454800,7.327454833984375,4.052660357066989,0.1691854770556092,-1.9200743281215429
1789039508704398600,7.337398681640625,4.234796208849549,-0.33323505252748725,-2.942334139600396
1789039508714342700,7.3473427734375,4.32752242334187,-0.6989391269832849,-3.730135206863284
1789039508724287700,7.357287841796875,4.4173236902982,-0.7225655017644167,-4.151616405859589
1789039508734231800,7.367231689453125,4.381154060286283,-0.435465885207057,-4.222046032869816
1789039508744175600,7.377175537109375,4.111490731698274,0.10199468583613633,-3.753201609674096
1789039508754119700,7.38711962890625,3.89487802529633,0.5710735023096204,-2.7492250583827493
1789039508764064800,7.397064697265625,4.042676723191142,0.6608771073535085,-1.812269202440977
1789039508774008800,7.4070087890625,4.085788719686866,0.5405331103563309,-1.4673504341214894
1789039508783952600,7.41695263671875,3.787895906436443,0.39743133810609577,-1.1331102962046862
1789039508793896700,7.426896728515625,3.1733073797881604,0.4421116068318486,-0.9518652557820081
1789039508803841500,7.436841552734375,2.331887535062432,0.41872897767871614,-1.159022736096382
1789039508813785900,7.446785888671875,1.7206325367510318,0.23006050925701854,-1.526186653971672
1789039508823729700,7.456729736328125,1.603946185478568,0.04184855243116617,-1.8462474598884582
1789039508833673700,7.466673828125,1.7837994792819023,-0.2848489150211215,-2.0629607040554285
1789039508843618600,7.47661865234375,1.696008383104205,-0.6155068105369806,-2.24102886800766
1789039508853562600,7.486562744140625,1.2692799311041831,-0.7230018473550677,-2.5572657317221164
1789039508863506700,7.496506591796875,0.9512135138750075,-0.7987608526945114,-2.75058524082005
1789039508873450800,7.50645068359375,0.7458335646271705,-0.7196709493666887,-2.8874422734618186
1789039508883394800,7.516394775390625,0.5130863005042076,-0.5336737459808588,-3.1636797197431323
1789039508893339600,7.526339599609375,0.22050269957780838,-0.4193137918293476,-3.259653537854552
1789039508903283700,7.53628369140625,0.08993278438150883,-0.20787351962924003,-3.1514579515516754
1789039508913227800,7.546227783203125,-0.010801379999518393,0.06971943291425704,-2.945668252459168
1789039508923171800,7.556171875,-0.25321605165600775,0.3671802844882011,-2.8588445400089024
1789039508933116700,7.56611669921875,-0.4107049534380436,0.6967357717201114,-2.658821733880043
1789039508943060700,7.576060791015625,-0.34535072999596594,1.1756228655025363,-2.3212632651954888
1789039508953004500,7.586004638671875,-0.49259588566124435,1.830445787383616,-1.7556582574248314
1789039508962948600,7.595948486328125,-0.6737848119825124,2.435612113431096,-0.9991729504019021
1789039508972893700,7.605893798828125,-0.7073579957604408,2.582593065202236,-0.4374246180593967
1789039508982837800,7.615837646484375,-0.5589104785680771,2.4656334499463437,0.012487141129374503
1789039508992781600,7.625781494140625,-0.01720072564780712,2.384844926007092,0.41249300589859483
1789039509002725600,7.6357255859375,0.9017629620075225,2.4058123107120393,1.2413596585214137
1789039509012670700,7.645670654296875,1.872057608449459,2.921351265065372,2.355118188524246
1789039509022614800,7.65561474609375,2.5920798554718494,3.6786055106341835,2.529990771305561
1789039509032558600,7.66555859375,2.1292203519046304,3.6866514544457196,1.6856962479263544
1789039509042502700,7.675502685546875,1.2760393422365188,2.9612735256090756,1.0313596482574938
1789039509052447700,7.68544775390625,1.2820727771818636,1.8079302964538335,0.24136779295206068
1789039509062391800,7.695391845703125,0.03596504735052585,2.3977684127271175,-0.06984393607676029
1789039509072335600,7.705335693359375,-2.1666765145957467,5.2154672878772015,0.6129086107373237
1789039509082279700,7.71527978515625,-2.1985750431597233,6.821957312619686,2.065854087409377
1789039509092223700,7.7252236328125,0.6286345876574516,5.85374882480204,3.1584184382140634
1789039509102168800,7.7351689453125,3.0955250519275666,5.177828754356503,4.134445490828156
1789039509112112600,7.745112548828125,4.044065547201037,5.995614040994644,5.1084103502154345
1789039509122056700,7.755056640625,3.6367788777738808,7.158556580883264,3.970325772729516
1789039509132000800,7.765000732421875,2.120731340500712,6.626557490116357,1.0711837091237306
1789039509141945600,7.774945556640625,-0.27415245670080185,4.474021144554019,0.6289321092993021
1789039509151889700,7.7848896484375,-2.4566087242305277,4.876632223385572,-0.9712357266843319
1789039509161833700,7.794833740234375,-3.3030145406752824,5.684596373233199,-3.1478976287215947
1789039509171777800,7.80477783203125,-2.339750523522496,4.256085080593824,-2.7308488592147824
1789039509181722600,7.81472265625,0.18312895447313784,4.213089403954148,-2.5580484065324067
1789039509191666700,7.824666748046875,1.7224100678175687,4.044914857506752,-1.7403180649518966
1789039509201610500,7.834610595703125,2.5031024721190334,3.364566156964004,-1.4492004449248312
1789039509211554800,7.844554931640625,3.0463787437036633,3.4003429882660505,-1.967337014555931
1789039509221499600,7.854499755859375,3.306889920803904,4.022663570471107,-2.0109411784827707
1789039509231443700,7.864443603515625,2.275694084805995,4.297500210043788,-2.688178761267662
1789039509241387500,7.874387451171875,0.19821137279272077,4.728060203030705,-4.043794913566113
1789039509251331600,7.88433154296875,-2.393560878034681,4.79491138703227,-4.475291310620308
1789039509261276700,7.894276611328125,-3.9409371811598537,4.850103989683092,-5.379447305244207
1789039509271220700,7.904220703125,-4.280763594776392,4.813982582727074,-5.8253550894886255
1789039509281164500,7.91416455078125,-4.556365081241727,4.047487630604207,-5.290900422263145
1789039509291108600,7.924108642578125,-4.595572471514344,3.2935531771078703,-5.4696109757721425
1789039509301053700,7.9340537109375,-4.572041373801231,3.729275375163555,-5.382521890383958
1789039509310997800,7.943997802734375,-3.8064369407773015,2.3887620994508265,-6.575459171041846
1789039509320941600,7.953941650390625,-2.338211477386951,1.2723738054662943,-7.196053075584769
1789039509330885600,7.9638857421875,-1.3138158229231833,0.9095150374390184,-4.943323248389363
1789039509340830500,7.97383056640625,0.5908346530299633,0.6671944738067687,-3.7221348557591436
1789039509350774800,7.98377490234375,0.18901574748940764,0.36996786938011644,-3.024889088690281
1789039509360718800,7.99371875,-1.6069605648636818,-0.5448205784171819,-2.858209164714813
1789039509370662700,8.00366259765625,-4.121635693615675,-0.45336759873107074,-2.266209486493468
1789039509380607500,8.013607421875,-5.626958423256874,-0.4817027357250452,-2.2700603167027236
1789039509390551600,8.023551513671874,-7.7193164867103095,-1.3992454506665468,-2.3068507089614867
1789039509400495900,8.033495849609375,-8.166177626156806,-2.2396289380818604,-3.011261545354128
1789039509410439700,8.043439697265624,-7.435771932286023,-2.517640116037428,-3.3967981552660462
1789039509420383700,8.0533837890625,-6.328508609521388,-3.1480005045741795,-2.3263988745182753
1789039509430328600,8.06332861328125,-4.904841249781847,-4.174613250565528,-1.4689467634022235
1789039509440272600,8.073272705078125,-4.7174847407415506,-5.255152232533693,-1.1559797151386737
1789039509450216700,8.083216796875,-4.361385822238028,-6.525014931961894,-1.0539917513042687
1789039509460160800,8.093160888671875,-3.9452217266112566,-7.625196187511086,-1.5459218665331602
1789039509470105600,8.103105712890626,-3.381148166191578,-7.725566194754839,-1.4261211826324462
1789039509480049700,8.113049560546875,-2.503132574996352,-8.229365611475705,-0.14218670323193072
1789039509489993500,8.122993408203126,-2.4890730699837205,-8.345019112569092,0.9520248302578925
1789039509499937800,8.132937744140625,-3.12595467698276,-9.025549891680479,2.382631049349904
1789039509509882600,8.142882568359376,-2.3161232719585296,-10.715946280121802,2.631636789834499
1789039509519826700,8.15282666015625,-0.9174413003936409,-12.579115648716687,1.8995207849144935
1789039509529770500,8.1627705078125,-0.8829276208952068,-13.483165260356664,1.2327069809883833
1789039509539714600,8.172714599609375,-0.9792603354468941,-10.812487084466218,-0.36469139028191566
1789039509549659600,8.18265966796875,1.3075357197403907,-8.43452578049302,-1.8056319563835859
1789039509559603700,8.192603759765625,0.6183303435251116,-6.903689254888892,-1.0148621024429798
1789039509569547800,8.2025478515625,0.6313825711913407,-5.150817413312196,-0.7684604069769382
1789039509579491600,8.21249169921875,0.5390856880269944,-3.4383149915248152,-0.832753138667345
1789039509589436700,8.222436767578126,-0.7236319619521498,-0.9763042621202767,-0.5714338600546122
1789039509599380700,8.232380615234375,-3.62122650385499,0.689214728565514,-0.38571313552260394
1789039509609324500,8.242324462890625,-5.399731383860111,1.666549502777308,0.8268512211471796
1789039509619268400,8.252268310546874,-2.601352710729837,2.4929718309879303,5.354923689362407
1789039509629213700,8.262213623046875,3.6509491496846076,5.291328876808286,7.6181567903935905
1789039509639157500,8.272157470703124,6.397009314295649,5.416825142002105,5.634819658151269
1789039509649101600,8.2821015625,5.399642536532879,1.767373975790292,4.00411230699718
1789039509659045400,8.29204541015625,5.4710792947590345,-0.5820648519232868,2.105891498765349
1789039509668990700,8.30199072265625,3.8975124654531474,-0.6495411820858716,1.4369640636861323
1789039509678934500,8.3119345703125,2.9859841884955762,-0.3761940504185855,0.7564169179618359
1789039509688878600,8.321878662109375,1.722686692801863,-0.3753527772888541,-0.8924322390824556
1789039509698822400,8.331822509765624,-0.5421894992612302,-0.0736940356336534,-3.0784353854388
1789039509708767500,8.341767578125,-0.7529213309310376,0.008333674711734056,-4.572766180944442
1789039509718711600,8.351711669921874,0.20992533759251236,-0.2890790999367833,-4.109128678742051
1789039509728655600,8.361655517578125,1.5029939944326878,0.043335283857584,-2.792283278864622
1789039509738599400,8.371599365234376,2.1613690558373926,0.2840285385489464,-2.9025772987514733
1789039509748544500,8.38154443359375,1.5633844579875469,0.14134586849361658,-1.390727213168144
1789039509758488300,8.39148828125,0.6091641635119914,0.14362170447111128,0.6888496946454048
1789039509768432600,8.4014326171875,0.49757075146436686,0.6280950739532709,1.1147919647037983
1789039509778376700,8.411376708984376,0.8245458668142557,0.4222067367918789,1.9342215114176273
1789039509788321500,8.421321533203125,0.6094307054936885,-1.0582049850851296,2.8355823223650454
1789039509798265300,8.431265380859376,1.2994815926223993,-1.206134908144176,1.4013994138300419
1789039509808209400,8.44120947265625,0.793595432755351,-1.0645384258903563,1.088357546764612
1789039509818153700,8.45115380859375,1.0336749394625424,-1.0147633182436226,1.1617501152336598
1789039509828098600,8.4610986328125,1.3734890781193971,-1.6650412901714444,1.0598451535075901
1789039509838042600,8.471042724609376,0.6529606351405381,-1.54020129692927,1.8774691121041773
1789039509847986400,8.480986328125,0.23110358856916427,-0.7602344304233789,2.3142326359063388
1789039509857930500,8.490930419921876,-0.6692670422971249,-0.8499317986138164,1.888366938215494
1789039509867875600,8.50087548828125,-2.1124527569770812,-0.5718034240193665,0.4316366823077202
1789039509877819600,8.510819580078126,-1.5739263102680443,-0.9623203065618872,-0.3119301064312458
1789039509887763500,8.520763427734375,0.46666649463474746,-0.6922086496844887,0.8251110994815826
1789039509897707500,8.53070751953125,0.3640396483749151,0.005493994306400418,1.3459271174550056
1789039509907652600,8.540652587890625,0.39932555435486133,0.2935390019550919,0.5397919366002083
1789039509917596700,8.5505966796875,0.5433405689924955,-0.14659407134540378,-0.27367490231692787
1789039509927540500,8.56054052734375,0.3559802970925346,-0.6483358248841017,-0.06123685125112533
1789039509937484500,8.570484619140625,0.17497607968840748,-0.7322463533014059,0.35196927135288714
1789039509947429400,8.580429443359375,0.6162170046329498,-1.0591206386253238,1.885099460852146
1789039509957373700,8.590373779296876,1.3629191687881945,-0.8375441723361611,1.9166770868986844
1789039509967317500,8.6003173828125,-0.03938917658030987,0.13406232388932257,-1.7374539076924322
1789039509977261600,8.610261474609375,-2.283945634192228,0.3986826898740604,-4.830620413795113
1789039509987206400,8.620206298828125,-2.630551917207241,0.21675361270997673,-5.012840436729788
1789039509997150500,8.630150390625,-2.0613737271249293,0.5632819716505706,-4.864053896841407
1789039510007094500,8.640094482421874,-1.6652911732792854,1.5165496415764093,-2.559465287593007
1789039510017038600,8.65003857421875,-1.0404302589416503,3.6058056473612785,-0.5241209047377109
1789039510026982700,8.659982666015624,-0.1576548694660887,3.3292914299651977,0.08989245237112045
1789039510036927500,8.669927490234375,0.8898960716683417,1.2809116244480012,-0.10499766704440117
1789039510046871300,8.679871337890624,0.9988568701900541,0.6235844646610319,1.1708195568740367
1789039510056815600,8.689815673828125,0.3960019628901034,0.4044869557060301,0.8784516445249319
1789039510066760400,8.699760498046874,-0.32037995486855503,0.8118885567497461,-0.7412304547458887
1789039510076704500,8.70970458984375,-0.35959319036006926,0.7153465102963149,-0.7805173399955034
1789039510086648600,8.719648681640624,0.636972207891941,0.06603771219421178,0.17022797184586524
1789039510096592400,8.72959228515625,1.5306769511282443,0.051432574263866986,0.5973427928149699
1789039510106537500,8.739537353515624,1.4628794261872768,0.7279373309958725,1.2398854943156241
1789039510116481500,8.7494814453125,0.3432908748567104,1.1958000496778636,1.9345272163659333
1789039510126425600,8.759425537109376,-0.7916601538438349,1.7389369858570396,1.2944804233342408
1789039510136369400,8.769369384765625,-0.6824457458872347,1.60767251252532,0.9718547353655099
1789039510146314500,8.779314453125,-0.45551798169799146,1.5794778069153428,1.129955047044158
1789039510156258600,8.789258544921875,-0.9562709433950484,1.860304334552586,0.7673743653059005
1789039510166202600,8.79920263671875,-0.4040988331712782,1.6261045335337518,-0.12523089225590228
1789039510176146400,8.809146484375,0.6632686055999248,1.7700958019696176,-0.48110243174433703
1789039510186091500,8.819091552734376,1.485946998041868,0.5249357647845522,0.11204349390268326
1789039510196035600,8.82903564453125,1.1528057612776756,0.5931114388555287,0.20336568681597708
1789039510205979600,8.838979736328126,-0.20613865866065023,1.580157167481631,-0.29083295786678787
1789039510215923500,8.84892333984375,-0.85913378059268,1.6379184515766798,-0.7159872924178838
1789039510225868500,8.85886865234375,-0.8696995982706546,1.4562722830072043,-0.12147533911466597
1789039510235812400,8.868812255859375,-0.17750757092740385,0.969640493382141,0.16767711831927298
1789039510245756700,8.878756591796876,2.452567339885235,-0.03768465595105663,1.8094389474511146
1789039510255700500,8.888700439453125,2.930609215015173,-0.014077643457520753,0.4718552954494953
1789039510265645600,8.8986455078125,0.5300748447060585,0.0419274080873467,-0.8458627956092357
1789039510275589400,8.90858935546875,0.8289525773406028,0.2094418466581963,0.1119371109187603
1789039510285533400,8.918533447265625,2.3101088339745997,0.17341113192662597,0.48412090278267855
1789039510295477500,8.9284775390625,2.1136159555375573,-0.1452846601141151,-0.049857963624596595
1789039510305422600,8.938422607421876,2.1372586969316005,-0.9710301941748708,0.5253735351473092
1789039510315366400,8.948366455078125,1.9488591085791587,-1.2223757027186453,1.5662679044693708
1789039510325310500,8.958310546875,1.3990449596583843,-1.1706392318710683,2.0699246978491543
1789039510335254500,8.968254638671874,1.2218301976650952,-1.067470972210914,1.9665046553850172
1789039510345199600,8.97819970703125,1.0364613553106785,-1.0730595859982073,1.602166900846362
1789039510355143400,8.988143310546874,0.8745254109919071,-1.1484194359522313,1.3245283555954694
1789039510365087500,8.99808740234375,1.0020517207086086,-0.7791494857084006,0.5675169788718223
1789039510375031600,9.008031494140624,1.3403227215766906,-0.08610648582531139,0.915462401536107
1789039510384976600,9.0179765625,0.1338438223004341,-0.8315041615195572,1.5300070890426636
1789039510394920700,9.027920654296874,2.135448432639241,-2.207272436617315,1.5765303552865981
1789039510404864500,9.037864501953125,2.3265672168225047,-1.9224810970023274,2.6681904507279395
1789039510414808600,9.04780859375,0.7348509828418492,0.12538270355043932,2.6403333065092562
1789039510424753400,9.05775341796875,-1.4149129753977059,-0.6811649853616952,0.2687467982649803
1789039510434697700,9.06769775390625,-0.7671101614117621,-3.068492083573341,0.42950200836658475
1789039510444641500,9.0776416015625,1.002002620869875,-2.514759299904108,-1.1930068387627601
1789039510454585600,9.087585693359374,1.9636872598767279,-1.7420055796474216,-2.8229204091906546
1789039510464530400,9.097530517578125,1.8639491207957266,-0.9707934628095477,-2.672390825027227
1789039510474474500,9.107474609375,1.5039011724054812,-0.5278937743399292,-2.1855863822489976
1789039510484418600,9.11741845703125,1.9830700057387352,-0.6113176882840693,-1.8775269797712564
1789039510494362600,9.127362548828126,2.2618284949302674,-0.556347203951329,-0.8464636841118335
1789039510504307500,9.137307373046875,1.9197335518598555,-1.215310732768476,1.0857482410490513
1789039510514251500,9.14725146484375,0.7905810533702373,-1.7182888962343335,3.105975718793273
1789039510524195300,9.1571953125,0.0512216897258535,-0.4297130938339978,4.065487105414271
1789039510534139400,9.167139404296876,-0.19686105416230856,0.7882032913882285,1.5358260044544934
1789039510544084500,9.17708447265625,0.463624131264165,0.03126203902503475,-2.208555169904232
1789039510554028500,9.187028564453126,3.6255648253202435,-2.184712083632499,-3.7067391337066886
1789039510563972400,9.196972412109375,3.7058535830438135,-2.641391291129589,-2.765432681339979
1789039510573916400,9.20691650390625,2.096961757856607,-2.49246855764091,-1.2154682614177466
1789039510583861500,9.216861572265625,2.2024632827699184,-1.2450786790445447,-0.9327578197300433
1789039510593805600,9.2268056640625,1.9602783282160758,0.19136779050827024,0.00611819061934948
1789039510603749600,9.23674951171875,3.294568783891201,1.0505346696529536,1.8398107048392294
1789039510613694200,9.246694091796876,2.971049946475029,2.1757063548780975,3.8394144967496393
1789039510623639300,9.256639404296875,1.1479214963674544,1.3776231091842055,4.7598827437490225
1789039510633583400,9.266583251953126,1.060817213410139,1.0845680182885378,4.23966235358119
1789039510643527200,9.276527099609375,0.8569862471699714,0.20033386310571805,1.4783686717420816
1789039510653471200,9.28647119140625,0.8228092522799968,0.5322731950005516,-1.3576286611646413
1789039510663416000,9.296416015625,0.6336439402520656,0.5955982872352004,-0.2879910124391317
1789039510673360400,9.3063603515625,-0.1351116502791643,1.4412068158224225,0.9663555534273386
1789039510683304200,9.31630419921875,0.6105062257707119,1.5791604115292428,-0.7067828262209892
1789039510693248300,9.326248291015625,2.370183655709028,0.9612798575982451,-1.5320786346197128
1789039510703193000,9.336193115234375,2.864455365628004,1.6498191711202264,-2.3378438131183383
1789039510713137200,9.34613720703125,2.956246929618716,1.241685237213969,-2.654807822063565
1789039510723081500,9.35608154296875,2.655891525647044,0.4976511232241988,-1.3231839552491902
1789039510733025300,9.366025390625,1.6668629526406527,0.7834562429916113,0.7274994510352611
1789039510742970000,9.37597021484375,0.5271575324872508,0.6162751645609736,2.0411440090447663
1789039510752914200,9.3859140625,-0.6272327580355107,0.09901661987341939,2.6440175479799506
1789039510762858200,9.395858154296874,0.22848967974372206,0.16887440181244165,1.9318822548151016
1789039510772803300,9.40580322265625,0.5001899940520524,1.1379358897302299,2.0840479157477616
1789039510782747400,9.415747314453125,0.5957985590476542,1.0766927548687903,-0.09449439320862292
1789039510792691200,9.425691162109375,1.4777864879399538,0.9209764887824654,0.33434593637883664
1789039510802635300,9.43563525390625,1.509343655720353,1.3551087872982024,1.6505501157432794
1789039510812580400,9.445580322265625,-0.4120774108350277,2.0977415100574492,-0.4735895718961954
1789039510822524400,9.4555244140625,-0.06589256810247898,0.3124005734872073,-4.761652676030994
1789039510832468200,9.46546826171875,1.848834553772211,-1.6641105851925908,-2.987472673487663
1789039510842412300,9.475412353515624,3.7779379915237423,-3.489358365541696,-2.8452964916497465
1789039510852357000,9.485357177734375,3.4748739131152626,-4.058559936499595,-3.367906407302618
1789039510862301400,9.495301513671874,1.6302619454741476,-4.106478164233267,-1.5641612875789404
1789039510872245200,9.505245361328125,1.0969218884270637,-3.7199545891106127,2.130283012700081
1789039510882189300,9.515189208984374,-0.1079061749022454,-2.339504147545993,3.2889649725347754
1789039510892134100,9.525134033203125,-1.652302950759977,-1.200340907977894,4.446948428711295
1789039510902078200,9.535078125,-2.330420385119319,0.05898432308398187,5.55823969181776
1789039510912022300,9.545022216796875,-0.1834615474283695,0.07848843030333519,3.0174574773848053
1789039510921966300,9.55496630859375,3.8835160888046025,-1.7658672244891522,0.5640548557192087
1789039510931911200,9.5649111328125,3.8226603458255526,-2.3065020416542885,-1.3461346227258444
1789039510941855200,9.574855224609376,1.2085808399915694,-1.6497094271354376,-3.737052438905835
1789039510951799000,9.584799072265625,-1.0421271990526466,0.48491307607367634,-4.855888710564375
1789039510961743400,9.594743408203126,-0.7954115422666073,1.4329929680980742,-3.875163271000981
1789039510971688200,9.604688232421875,1.2381038715958594,1.196775105255097,-0.11078443375229835
1789039510981632300,9.61463232421875,1.7813555932611227,1.528153423999995,2.7432985909432173
1789039510991576300,9.624576416015625,1.4578034380972384,1.2194085234761238,4.156404809179902
1789039511001520000,9.63452001953125,1.2560603840470312,1.2511596063934265,4.188956833216547
1789039511011465200,9.64446533203125,0.7413654793024063,1.1534139563038945,2.877280944931507
1789039511021409300,9.6544091796875,0.5513619628846645,-0.5759361399099231,2.6941087358385323
1789039511031353300,9.664353271484375,1.807050591009855,-2.8583251923099158,17.6053924901247
1789039511041297200,9.674297119140626,5.265108978402615,6.2857835665166375,18.517783229130504
1789039511051242200,9.6842421875,0.753261084279418,7.007612570700049,-9.061157796156406
1789039511061186300,9.694186279296876,1.5155097771346568,-4.831556525601447,-22.856779232645035
1789039511071130400,9.70413037109375,0.6313350787878036,-5.625914467161894,-6.562219165718555
1789039511081074200,9.71407421875,-0.044755672049522396,-0.414126452319324,-2.4907810429453847
1789039511091019300,9.724019287109375,-2.7283482745707035,1.2734414346978067,-2.8452228418916463
1789039511100963300,9.73396337890625,-1.5642437051653861,0.6286530000969767,-0.6543886221170425
1789039511110907400,9.743907470703125,0.9269605316281319,0.05042933377176523,0.08055529970526695
1789039511120851200,9.753851318359375,1.4914382889345288,-0.8871563445061444,-1.9062047927230596
1789039511130796300,9.76379638671875,0.3598948767203837,-0.5944713290318846,-2.6365426820546385
1789039511140740000,9.773739990234375,0.5511527771133929,-1.109917344404757,-1.5111457367062568
1789039511150684400,9.783684326171874,0.15907171399407088,-2.978009556354582,-1.8212720085859297
1789039511160629200,9.793629150390625,0.3199753926556557,-4.7516743028521535,-2.7435978661507368
1789039511170573300,9.8035732421875,1.33066291282773,-5.699527400383353,-2.1022686320930717
1789039511180517000,9.81351708984375,1.5552689560711384,-5.879134610471129,-0.7277899584144354
1789039511190461200,9.823461181640624,1.4194015189886093,-4.732229597669839,-0.8580307877868414
1789039511200406300,9.83340625,1.8773007697999475,-2.814975003144145,-3.2555753286302087
1789039511210350300,9.843350341796874,1.9791735828220842,-0.22169278614521026,-1.366189568760991
1789039511220294100,9.853294189453125,2.1256734730780122,1.2049614804506301,-1.9929075091421602
1789039511230238200,9.86323828125,-0.048802901613712306,4.934167882031202,-2.148641091689467
1789039511240183300,9.873183349609375,0.5504803577445447,3.6987364445149895,-0.9379553883731364
1789039511250127400,9.88312744140625,0.23623437558636068,4.15085185122788,-3.336516412782669
1789039511260071200,9.8930712890625,0.15680720312818883,3.6103058813899755,-2.1554332360476254
1789039511270015200,9.90301513671875,0.0487738216497004,2.4340087698876856,-2.0742992596715686
1789039511279960000,9.9129599609375,0.3842272808790207,1.885802640685439,-1.576894512423873
1789039511289904400,9.922904296875,1.3333644268713891,1.4369827683866023,-1.4747913977771996
1789039511299848200,9.93284814453125,1.6067933916032313,2.1063497639268633,-0.21925591438710687
1789039511309792300,9.942792236328126,0.3611199615359306,2.820772875767946,1.296117669147253
1789039511319737000,9.952737060546875,-0.2826901295520365,3.030796851429343,1.2583254063695668
1789039511329681200,9.96268115234375,0.5337688769184052,2.199362394145131,0.6255681858241557
1789039511339625500,9.97262548828125,2.540371880066395,0.4225234015256166,-2.1030302641153336
1789039511349569300,9.9825693359375,2.343045327284187,-3.412565633240342,-1.555019949746132
1789039511359514000,9.99251416015625,1.6664637241899967,-0.5640478414565324,1.6926099728375672
1789039511369458200,10.002458251953126,-2.0932747399069367,2.1542168459951876,4.696034248694777
1789039511379402200,10.01240234375,-4.383980808144807,2.9055589449107644,5.440497109490632
1789039511389346300,10.02234619140625,-2.0102045347712933,1.6736679564803838,1.9876409669160842
1789039511399291400,10.03229150390625,-0.826019592628628,-1.5352806455314159,2.7597043668210506
1789039511409235200,10.042235107421876,0.05943783900514245,-1.9958803874731064,1.5723463476002215
1789039511419179300,10.05217919921875,-0.08031564573049545,-0.9550953237444162,2.3504396753191945
1789039511429123000,10.062123046875,-0.6025425534151494,-2.303576801857352,2.8253905986964702
1789039511439068400,10.072068359375,0.104386257147789,-1.7096224824368953,2.673558699762821
1789039511449012200,10.08201220703125,1.0915946289896965,-0.6329641412943601,2.1676035663127897
1789039511458956300,10.091956298828125,3.6538580228686333,-7.446051334238052,-7.58856069355309
1789039511468901000,10.101901123046876,-4.647555756729841,5.024127554419636,2.8317046041488645
1789039511478845400,10.111845458984375,2.7908780882418154,4.5127492268770935,1.9038246195882558
1789039511488789200,10.121789306640625,1.4985330695010721,-0.07806114480197429,-0.2738005745232105
1789039511498733300,10.1317333984375,-0.03493088199719786,1.641757152956724,4.402496708044409
1789039511508678100,10.14167822265625,0.9198794873259961,1.4165993210494519,4.893207510611415
1789039511518622200,10.151622314453125,1.1676841814577579,2.178149510246515,1.383343532657623
1789039511528566300,10.161566162109375,1.0961468854665755,2.765958166518807,1.3851058661550282
1789039511538510300,10.17151025390625,0.8972092442259192,2.3025205708026886,3.1048692188560962
1789039511548455200,10.181455078125,0.7705074026346206,-0.08760463369488716,4.403082398977875
1789039511558399200,10.191399169921874,0.5501064098656178,-3.051992784193158,4.869107673099637
1789039511568343000,10.201343017578125,0.5828115786373614,-2.959020485985279,3.5606706206053493
1789039511578287400,10.211287353515624,0.9481330835163593,0.07516951501369476,2.9574083746135233
1789039511588232200,10.221232177734375,0.8885748330019414,0.49353813494741916,4.2834360288560385
1789039511598176300,10.23117626953125,-1.1190040294408798,1.8490502423495052,3.1361575065672396
1789039511608120300,10.241120361328125,-0.5966213466726243,2.1882219914495944,2.9317344196528197
1789039511618064600,10.251064697265624,-0.0035353345192968844,2.269061368793249,4.04350206809938
1789039511628009500,10.261009521484375,0.762291362953186,1.0361997817650437,2.66807763800323
1789039511637953500,10.27095361328125,-1.3367489547431468,0.15815262638777494,1.7473995476454496
1789039511647897600,10.280897705078125,-2.1312990578748283,2.196554058726132,5.995698212146759
1789039511657842700,10.2908427734375,-1.234784956306219,0.8349722760215401,0.299590849339962
1789039511667786500,10.300786376953125,0.018885902255773544,-2.8300167971923944,-11.610769798254966
1789039511677730600,10.31073046875,0.6196563314318656,-2.353788693486154,-10.71753851774931
1789039511687674600,10.320674560546875,0.18557152531966567,-1.2817299550935626,-4.449219880774617
1789039511697619500,10.330619384765624,-0.7744706071771681,1.7391762014403938,0.7776490910828113
1789039511707563500,10.3405634765625,-0.4735587383665144,1.844101095509529,0.48089784908294675
1789039511717507600,10.350507568359374,1.7879741346180438,1.1845803712010383,-1.1906348489344118
1789039511727451600,10.36045166015625,3.688268826514482,-0.018746786046028138,-3.6192110723793505
1789039511737396500,10.370396484375,3.15508666344285,-0.9728975224167108,-2.2251000619918107
1789039511747340500,10.380340576171875,2.5424200447678564,-1.0295926385849714,-0.11411562400162219
1789039511757284600,10.39028466796875,2.004353616786003,-2.413704233005643,-1.9139356792360542
1789039511767228700,10.400228759765625,1.7225906850814818,-2.240108830553293,-1.1648130099356173
1789039511777173500,10.410173583984376,1.8342086470484733,-2.4755787976384163,-0.7782517331510782
1789039511787117600,10.42011767578125,1.5952666199386119,-2.7662323072850703,-2.3709178152024744
1789039511797061400,10.430061279296876,2.7482103283822537,-2.4284119727939366,-5.4178527314841745
1789039511807006700,10.4400068359375,3.2619933789789677,-4.600827323302626,-7.231880175769328
1789039511816950500,10.449950439453126,0.6769337775327264,-0.9884954890429973,-6.916414880949258
1789039511826894600,10.45989453125,0.22783253100924192,3.228765647637844,-4.296240565371513
1789039511836838400,10.46983837890625,1.7852980472765863,2.6840613890767098,-3.7612300178289413
1789039511846783700,10.47978369140625,1.4580148888908326,4.040559000384808,-1.8155156370162964
1789039511856727600,10.4897275390625,0.8099624840579926,3.392328316375613,-1.3259925829291344
1789039511866671600,10.499671630859375,2.008658035981655,2.400607435545325,-1.1002741945296526
1789039511876615400,10.509615478515625,1.9426761821605265,3.212946147215366,-0.7509428704649209
1789039511886560500,10.519560546875,3.4409929785624143,0.6367828227996826,-7.658561866018176
1789039511896504600,10.529504638671876,3.9042812289357185,-1.9515689520597457,-14.228003968727588
1789039511906448600,10.53944873046875,-1.4390949382349847,-1.2201923673301935,-7.336033793205022
1789039511916392400,10.549392333984375,-3.624940848203003,2.3059891236960888,7.440248785439133
1789039511926337500,10.559337646484375,-1.9626497335225344,-0.7496312033444642,3.9998172401517627
1789039511936281300,10.56928125,-2.588015090250969,2.2687451424509284,6.257795489394664
1789039511946225700,10.5792255859375,-0.6808321001455188,-1.2533587238729,8.081316738212108
1789039511956170500,10.58917041015625,-3.281480461998284,-0.3921756095349788,9.983408250397444
1789039511966114600,10.599114501953125,-1.8410972375184296,0.845625479722023,6.410558531698584
1789039511976058400,10.609058349609375,-1.5899652986600994,2.266116547513008,7.248654784959554
1789039511986002400,10.61900244140625,-1.5518959725067019,2.760871072512865,8.67252146666348
1789039511995947500,10.628947509765625,-1.6652935113668441,3.470313473331928,8.828048128461838
1789039512005891600,10.6388916015625,-0.3191208947181701,3.3743466694831845,3.687334760534763
1789039512015835600,10.648835693359375,-0.12349252415597438,1.985194158285856,1.8255898717850445
1789039512025779500,10.658779541015624,-0.8318146887734532,-0.2004758105933666,4.241003246796131
1789039512035724500,10.668724609375,-0.5116822789251804,-1.8996265833765267,3.723062491998076
1789039512045668600,10.678668701171874,-0.7369172677218914,-2.7733558755546808,3.037097412878275
1789039512055612700,10.68861279296875,-0.6320274449661374,-2.829686250063777,3.3279496599674223
1789039512065557500,10.6985576171875,-0.2717822204381227,-1.9208289458811283,3.6429245409220457
1789039512075501600,10.70850146484375,0.05499298842549324,-0.513079870763421,5.106952552622556
1789039512085445600,10.718445556640624,-0.40039690991342064,0.15521744971871376,5.446240621578693
1789039512095389700,10.7283896484375,0.03293956204950809,1.7792536525458096,3.219686853647232
1789039512105334500,10.73833447265625,0.4925017776370048,2.7224977949768303,1.7321926261633633
1789039512115278600,10.748278564453125,0.11932517534345388,3.5411943512409922,-0.1938631144553423
1789039512125222400,10.758222412109374,-1.1056629018306732,2.6598575066685677,-2.3173493066221473
1789039512135166700,10.768166748046875,-2.026140208919346,2.4456816720247265,-0.16011282054483889
1789039512145111600,10.778111572265624,-0.5827987191557884,1.6169810236185789,-1.7714532079279421
1789039512155055600,10.7880556640625,-0.49897272721678015,2.3010212721556424,-2.1800176422059536
1789039512164999400,10.79799951171875,-0.6789072695627808,-0.3391390158742666,2.19992411968112
1789039512174943500,10.807943603515625,2.0791019837781786,-0.9659043025285005,-5.214499319627881
1789039512184888600,10.817888671875,1.3211831368207931,-1.2786381265580653,-8.630032570502161
1789039512194832600,10.82783251953125,-0.9113003134205937,1.576735522469878,3.383614848566055
1789039512204776400,10.8377763671875,0.37087943126708267,6.9882520366698495,10.658578963780403
1789039512214721500,10.847721435546875,-0.5494327483877539,1.4880460161477327,2.0425784257620574
1789039512224665600,10.85766552734375,-3.318500279098749,0.09650748659670352,-0.5475397742480039
1789039512234609700,10.867609619140625,-0.46677594635859126,-5.624118815916776,-11.471539022219181
1789039512244553500,10.877553466796876,1.5952970150768755,-9.441191716998816,-17.98249912534356
1789039512254498600,10.88749853515625,3.4653906299769877,-12.731581169378757,-17.46235296945572
1789039512264442400,10.8974423828125,2.5624200457453727,-11.008156956082582,-8.565511290752887
1789039512274386700,10.90738671875,2.0870329229079188,-8.27900321034789,0.2045861685216427
1789039512284330500,10.91733056640625,0.38922392012253404,-8.470754447215795,-1.088736316949129
1789039512294275600,10.927275634765625,1.0436145880661905,-9.540956744086742,-4.218203970488906
1789039512304219400,10.937219482421876,-3.738893098336458,-6.175850781157613,-7.023753558161855
1789039512314163500,10.94716357421875,0.12302066886052489,2.4135791453212496,-5.132423678487539
1789039512324108500,10.957108642578126,3.0862837608516216,4.874843001881241,-3.7838369864344594
1789039512334052600,10.967052490234375,3.3683027131438252,8.262471762263774,-0.3712894733726978
1789039512343996400,10.976996337890625,2.9697078842163083,10.853864219993353,5.007171743443608
1789039512353940500,10.9869404296875,2.8930864168286323,7.300479664742946,6.394157431995868
1789039512363885600,10.996885498046876,1.2528924215354025,8.223596964946388,6.531501955893636
1789039512373829600,11.00682958984375,0.21803718624711035,6.794844849288463,4.750250407528877
1789039512383773400,11.0167734375,0.24055063135027885,2.8932904149681327,0.7799351561933755
1789039512393717500,11.026717529296874,0.3542519754625857,2.141222339865565,-0.2724766324430704
1789039512403662300,11.036662353515625,0.09069894644841552,2.1303262673199175,-0.5413379969984292
1789039512413606700,11.046606689453125,-0.5705016937710344,2.2842285427868365,-1.536544966378808
1789039512423550700,11.05655078125,-0.2316378415763378,2.1947452557384968,-3.9266444519132375
1789039512433495600,11.06649560546875,0.5534884535193443,1.3950474144548177,-6.157735278752446
1789039512443439400,11.076439453125,-0.9733271460056304,0.8514689450532198,-0.7755950811624527
1789039512453383400,11.086383544921874,0.8260559791162609,-1.0145552284508943,-9.35742271594405
1789039512463327700,11.09632763671875,-5.447145461463928,-0.6489823791593313,-8.871189935573936
1789039512473272600,11.1062724609375,-3.62423766836971,1.361117087802291,15.248628287959098
1789039512483216600,11.116216552734375,-3.728271458818018,-1.19802379014194,13.382993406033515
1789039512493160400,11.126160400390624,-3.275907338041067,-1.4637842660725116,4.801240005531906
1789039512503104500,11.1361044921875,0.5693146759435534,-2.765173153620958,3.5304046616792677
1789039512513049600,11.146049560546874,1.0146282936871052,-3.368777344918251,6.235910405322909
1789039512522993700,11.15599365234375,-0.09877221665829419,-0.6785089178949594,5.009617383030057
1789039512532937500,11.1659375,-0.08012947550863027,-0.7553677011698484,1.8253806129485368
1789039512542882600,11.175882568359375,-0.48836102457046504,-1.7799106551498174,0.9509913955569267
1789039512552826600,11.18582666015625,-0.15610767655670643,-1.4812760836213825,1.1863590713113545
1789039512562770700,11.195770751953125,-0.47107320516109463,-2.330700371104479,-0.10753215395808219
1789039512572714500,11.205714599609376,-0.3974740082040429,-3.5921126375734804,-1.5896593014508484
1789039512582659600,11.21565966796875,-1.1698615254968403,-4.332953216218948,-1.5180220522165297
1789039512592603400,11.225603271484376,-1.661078524020314,-4.6092672348678105,-2.705231602877378
1789039512602547700,11.235547607421875,-0.7674336942777037,-3.4533132386922833,-3.078296269229054
1789039512612492000,11.245491943359376,-0.1465638954028487,-3.1709096709966658,-1.7323767505586147
1789039512622436000,11.25543603515625,-1.4492062901437281,-1.381920806378126,-1.7107482715964317
1789039512632380200,11.265380126953126,-1.4064344853878021,0.8960340629667043,-1.3040893786787986
1789039512642324200,11.27532421875,-0.23204262298494577,3.531698793143034,1.7134861721277237
1789039512652269000,11.28526904296875,0.05708031609356403,5.987897767528891,-0.12401157959401607
1789039512662213000,11.295213134765625,-0.9775973706707358,4.180716243615747,0.0773895291507244
1789039512672157000,11.305156982421876,-1.6987179343238472,3.931352191212773,1.2379495578169821
1789039512682101200,11.315101318359375,-1.7180170935556291,2.2500164765834807,5.011448105588555
1789039512692046000,11.325046142578126,4.384920427082479,-3.9889275973469016,4.4184979947745795
1789039512701990100,11.334990234375,5.062554607969522,-17.599958774638175,-10.142944147837161
1789039512711934200,11.344934326171876,-10.362240394234657,4.894843587380647,-2.1062509797275064
1789039512721879300,11.35487939453125,1.4690049233302473,9.412751804456114,-3.0615315969109536
1789039512731823000,11.364822998046876,-1.0528636240571736,-0.6663526161551475,0.17100246334969996
1789039512741767200,11.37476708984375,1.1992609307214617,4.9596436840713025,0.6014864684909582
1789039512751711200,11.384711181640625,2.3569635241299864,3.726127140265703,-1.3828081106066703
1789039512761656000,11.394656005859375,-0.48832449195235966,2.377153494721651,-1.177292552280426
1789039512771600100,11.40460009765625,-0.7154749589815735,3.6962265075206755,-1.3613643405616283
1789039512781544200,11.414544189453125,-0.027412907582521438,0.1953390322268009,-1.0538806921452284
1789039512791489000,11.424489013671876,-2.031921422669291,-3.916180925565958,-1.2753998752892017
1789039512801433000,11.43443310546875,-1.1205220327883958,-3.5166339104801416,-0.6997200482279062
1789039512811377200,11.444377197265625,-5.067075300264358,-1.835915450966358,-0.5436386751562357
1789039512821321200,11.4543212890625,3.45475583871603,-1.0012596935480833,0.6237964999765158
1789039512831266000,11.46426611328125,4.296438133770227,0.4042980090051889,3.7447090911388394
1789039512841210000,11.474210205078125,1.288659462095797,2.249990173098445,1.884070117804408
1789039512851154200,11.484154296875,-0.3741770115077495,2.3533050016224384,-0.03159516170322895
1789039512861098000,11.494097900390624,-1.557134457682073,1.4527134214818476,-1.2996867598056792
1789039512871043300,11.504043212890625,1.3605015862524508,2.313713580468297,-1.0171458294659852
1789039512880987100,11.513987060546874,0.4561272727027535,2.0121710125386714,-0.059085226175189014
1789039512890931200,11.52393115234375,0.3216550893709063,2.219739996263385,-0.7788146277308463
1789039512900876000,11.5338759765625,0.6427323788538575,2.4606115301311013,-0.1340057348638773
1789039512910820400,11.5438203125,0.7828878685191273,2.797242362576723,-0.11225216821730136
1789039512920764200,11.55376416015625,0.45897827821969983,2.4046143330991265,0.05370002600550651
1789039512930708200,11.563708251953125,-0.22198592387288807,0.905268339779973,1.9831343031466007
1789039512940653000,11.573653076171874,-0.525590392768383,2.130177798759937,1.072746136134863
1789039512950597000,11.58359716796875,-0.3064277096226811,2.0905583205550906,0.9465180495351553
1789039512960541200,11.593541259765624,0.13324059571027755,-1.5082535223960876,1.407003225186467
1789039512970486300,11.603486328125,0.11215396853983402,0.8955068242222071,1.0745534778177737
1789039512980430000,11.61343017578125,-1.1760220939531922,3.198790780612826,2.2101339635282753
1789039512990374100,11.6233740234375,-0.823303173276782,-4.049567067226767,2.0954168665021657
1789039513000318000,11.63331787109375,0.29762597900778054,-11.211735408866405,-0.16346622262597083
1789039513010263300,11.64326318359375,-1.775403406858444,2.640210556912422,2.3738404246509073
1789039513020207000,11.65320703125,-2.2676000640690326,0.3266863615363836,2.606166248491406
1789039513030151200,11.663151123046875,-1.1692249811589717,-7.459989258697629,-0.48571723206341266
1789039513040096000,11.673095947265624,-0.015972645157575606,-3.8138878413051365,-1.599906554698944
1789039513050040300,11.683040283203125,0.06724310592859983,-2.9176573789834976,-1.3021616254866122
1789039513059984100,11.692984130859376,0.16764058570116758,-2.3320324964910744,-0.960970353257656
1789039513069928200,11.70292822265625,0.007268821959197521,-0.670837068092823,-1.2474924621880055
1789039513079873000,11.712873046875,-0.5410217706561088,1.322449795755744,-2.280605676114559
1789039513089817000,11.722817138671875,-0.7449944834545255,4.729649518048763,-1.871145754301548
1789039513099761200,11.73276123046875,0.09586305121332406,5.315217117395997,-0.6604086130589246
1789039513109706200,11.742706298828125,0.7057514373466373,3.4466420903652906,0.0720475836008787
1789039513119650000,11.752650146484376,0.557989272069931,3.2902719634801145,0.8926467586159705
1789039513129594000,11.762593994140625,0.6845642724111676,2.8710440963685513,0.6381412516713142
1789039513139538200,11.7725380859375,0.180252814514935,-0.21542612696588037,0.30832769802510734
1789039513149483300,11.782483154296875,-0.8081880217313766,-3.42804903357625,0.9579109656870365
1789039513159427000,11.792427001953126,-0.09553454991132021,-5.125272637689113,3.1552175963461395
1789039513169371100,11.80237109375,0.03170242146998644,-4.823665772351622,3.831849029931426
1789039513179316000,11.81231591796875,-0.5143357160434127,-3.0642303344756363,-0.6908534356832504
1789039513189260300,11.82226025390625,-1.229359716387093,-0.8384674246609211,-2.93216170515418
1789039513199204000,11.8322041015625,-0.6963818437159061,-0.1413987677246332,-0.8942039249300956
1789039513209148200,11.842148193359375,-0.149560446870327,-0.3141372610867023,0.7006354095071554
1789039513219093000,11.852093017578126,-0.10188187311142682,-0.5025795195370912,-0.5325976411819457
1789039513229037000,11.862037109375,-0.2504971480861306,-0.13043781324923037,-1.6521926222532988
1789039513238981000,11.871981201171875,-0.3501949551567435,0.16459025821983814,-0.6707628338128327
1789039513248926200,11.88192626953125,0.005653203456103801,-0.6946949135422706,0.08652385272085666
1789039513258870000,11.8918701171875,0.4662517763540148,-2.608466926649213,0.7073281851440668
1789039513268814000,11.90181396484375,0.7296373398467898,-3.0134120013862846,0.2665478269159794
1789039513278758100,11.911758056640625,0.667892246812582,-4.138298074603081,0.2725081966251135
1789039513288703200,11.921703125,0.5973942307412624,-7.770671995416283,1.7872563417375087
1789039513298647000,11.93164697265625,1.3235209321185946,-10.534816975033282,4.597245373162627
1789039513308591000,11.941591064453124,1.0114981789678335,-7.360348150250315,1.5951672512173651
1789039513318536000,11.951535888671875,-0.20460341191738843,-6.1236103063106535,-0.693355189371109
1789039513328480300,11.961480224609375,-0.829636760212481,-3.1578812625974413,-0.4705301843255758
1789039513338424300,11.97142431640625,-0.8766390421450138,1.9840999333083629,0.5665758986294269
1789039513348368100,11.9813681640625,-0.8023112386524677,1.6323767456710339,1.0287824912458658
1789039513358313000,11.99131298828125,-0.708144762223959,5.493520259147882,0.28959377146065235
1789039513368257000,12.001257080078124,-1.1769278106212615,7.608741896316409,-1.1706927156239748
1789039513378201300,12.011201416015625,-0.9577940613090992,3.0525977643489837,0.3731248721063137
1789039513388146200,12.021146240234375,0.3421075102910399,3.2977719638466834,-0.039844519132375716
1789039513398090200,12.03109033203125,-0.11789923419356345,0.011231003588438034,-2.229724799183011
1789039513408034000,12.041033935546874,0.5603220989316702,0.413417719528079,-3.4898394270569084
1789039513417978000,12.05097802734375,0.1557975876942277,-0.5966904663860797,-2.8046020776897667
1789039513427923200,12.060923095703124,0.021213760681450367,-0.2012730984508991,-1.3963082281708716
1789039513437867300,12.0708671875,0.558623478320241,-1.1636492268532515,0.024331308180093762
1789039513447811000,12.08081103515625,0.4177937426552176,-1.3802116643726825,-0.42317455891072747
1789039513457756200,12.090756103515625,-0.08867226292639971,-3.261570769652724,-2.0752415089577436
1789039513467700200,12.1007001953125,-0.051852352312207216,-5.5863943576782935,1.2300193493396043
1789039513477644300,12.110644287109375,-1.829958588388562,-0.11255495055615901,2.693358794254064
1789039513487589000,12.120589111328124,-1.1018258078858256,-1.6396072814464568,1.252275020289421
1789039513497533200,12.130533203125,-0.5642074159324169,1.1247060404747724,-0.7244967620879411
1789039513507477000,12.14047705078125,0.1419184076845646,5.2361336438089605,-1.2818196792036294
1789039513517421300,12.15042138671875,1.0837173197433352,6.048012336751818,-1.3546055139511823
1789039513527366100,12.1603662109375,2.060105606885254,3.1407419117480515,-0.7017816569328308
1789039513537310200,12.170310302734375,-0.8149372037306427,1.4304881456702947,1.7837573937058449
1789039513547254000,12.18025390625,-0.8190028457343578,1.2626321636527775,1.4402128363490103
1789039513557199400,12.190199462890625,0.9069877109184861,-3.0527655221313235,1.5720155082106588
1789039513567143200,12.20014306640625,-0.264780524982512,-0.412429293012619,1.1361544862061739
1789039513577087200,12.210087158203125,-1.7619862914025783,0.24876374842226504,0.7504431042492389
1789039513587031000,12.220031005859376,-0.6760968883171677,2.949550062328577,0.8172709073752165
1789039513596976000,12.22997607421875,-0.00032587095350027084,6.733506875750422,-1.8527765693962572
1789039513606920200,12.239920166015626,1.3571604591310023,9.797346749603747,-4.085840742135048
1789039513616863700,12.24986376953125,1.2577642653554677,7.625479096105694,-2.729326179692149
1789039513626808600,12.25980859375,0.16580810957700012,5.207364060920477,-0.7939081519663334
1789039513636752600,12.269752685546875,-0.6497182922184467,4.705393028670549,-0.029596681362390517
1789039513646696400,12.279696533203126,1.0385793703779578,3.793129130914807,-0.28294541948735713
1789039513656640500,12.289640625,2.00836928216815,2.555900873109698,0.2576005503505468
1789039513666585600,12.299585693359376,0.9846180630877613,1.9377198749274014,-0.10421908388733864
1789039513676529700,12.30952978515625,0.385890245655179,0.9296785584151744,0.08735621189177036
1789039513686473700,12.3194736328125,-0.6786454037562012,-0.3685153324842453,1.160101178982854
1789039513696418600,12.32941845703125,-1.511818521401286,-3.4416081878513096,1.173950256115198
1789039513706362600,12.339362548828126,-0.22774521805196998,-4.491222454723715,1.1371738923817873
1789039513716306700,12.349306640625,0.8077487535312772,-3.8857220744162797,0.8664923266619443
1789039513726251500,12.35925146484375,1.1829048392042516,-3.526403609344363,0.28822540571689603
1789039513736195600,12.369195556640625,0.37960166690498587,-0.5663064340382814,0.4498533069998026
1789039513746139600,12.3791396484375,-1.6205238107919693,-1.1260808359593153,0.9847440275549888
1789039513756083700,12.389083740234375,0.19565438178628683,-0.6340589507937431,0.5200912108302116
1789039513766028500,12.399028564453126,0.7772410948038101,-0.4336392543017864,0.006617956835031509
1789039513775972600,12.40897265625,0.016436755537986753,-0.2621756031811237,0.629840456315875
1789039513785916700,12.418916748046875,0.9673775899514555,1.6466554463922976,0.21938743181228637
1789039513795861800,12.42886181640625,1.1114344709694386,3.140621500238776,-0.10954700091183185
1789039513805805600,12.4388056640625,0.11995675124526023,1.2784849818229675,-0.16035598165094853
1789039513815749600,12.44874951171875,0.5229387092158198,2.0590970143646,0.03162555684149265
1789039513825693700,12.458693603515625,-0.06096271048486233,1.5691221248567104,0.29108839393258096
1789039513835638500,12.468638427734374,-0.5483604429811239,-0.15084814859330653,0.5299415737152099
